"","rt","stimulus","button_pressed","trial_type","trial_index","time_elapsed","internal_node_id","key_press","shape","name","trial_name","object","correct","phase","objSize","subid","block","size_bin","log_rt"
"1",2475.05499992985,"<audio src='stimsounds/sprock.mp3', autoplay='true'></audio><div class='displayed'><div style='width: 700px;'><div style='float: center;'><div id='rectangle'></div><img src='stim-images/object18bluebig.jpg' width='283.26050991441355' height='283.26050991441355'></img></div></div></div>",NA,"html-keyboard-response",4,35066,"0.0-4.0-0.0","70",18,"sprock","trial","big",1,"training",283.260509914414,"aibq_dark_tgid",0,4,7.81401789694976
"2",712.924999999814,"<audio src='stimsounds/sprock.mp3', autoplay='true'></audio><div class='displayed'><div style='width: 700px;'><div style='float: center;'><div id='rectangle'></div><img src='stim-images/object18bluebig.jpg' width='343.1239071802108' height='343.1239071802108'></img></div></div></div>",NA,"html-keyboard-response",6,37034,"0.0-4.0-0.1","74",18,"sprock","trial","big",0,"training",343.123907180211,"aibq_dark_tgid",0,6,6.56937622554043
"3",717.745000030845,"<audio src='stimsounds/sprock.mp3', autoplay='true'></audio><div class='displayed'><div style='width: 700px;'><div style='float: center;'><div id='rectangle'></div><img src='stim-images/object18bluebig.jpg' width='303.27354779513274' height='303.27354779513274'></img></div></div></div>",NA,"html-keyboard-response",8,39006,"0.0-4.0-0.2","70",18,"sprock","trial","big",1,"training",303.273547795133,"aibq_dark_tgid",1,5,6.57611435280602
"4",725.440000067465,"<audio src='stimsounds/sprock.mp3', autoplay='true'></audio><div class='displayed'><div style='width: 700px;'><div style='float: center;'><div id='rectangle'></div><img src='stim-images/object18bluebig.jpg' width='295.662383466123' height='295.662383466123'></img></div></div></div>",NA,"html-keyboard-response",10,40986,"0.0-4.0-0.3","70",18,"sprock","trial","big",1,"training",295.662383466123,"aibq_dark_tgid",1,4,6.58677836741216
"5",1605.82000005525,"<audio src='stimsounds/boti.mp3', autoplay='true'></audio><div class='displayed'><div style='width: 700px;'><div style='float: center;'><div id='rectangle'></div><img src='stim-images/object12bluebig.jpg' width='214.31784821587746' height='214.31784821587746'></img></div></div></div>",NA,"html-keyboard-response",12,43846,"0.0-4.0-0.4","74",12,"boti","trial","small",1,"training",214.317848215877,"aibq_dark_tgid",1,2,7.38138980855859
"6",986.000000033528,"<audio src='stimsounds/boti.mp3', autoplay='true'></audio><div class='displayed'><div style='width: 700px;'><div style='float: center;'><div id='rectangle'></div><img src='stim-images/object12bluebig.jpg' width='245.36628518487666' height='245.36628518487666'></img></div></div></div>",NA,"html-keyboard-response",14,46086,"0.0-4.0-0.5","74",12,"boti","trial","small",1,"training",245.366285184877,"aibq_dark_tgid",1,3,6.89365635463664
"7",806.129999924451,"<audio src='stimsounds/boti.mp3', autoplay='true'></audio><div class='displayed'><div style='width: 700px;'><div style='float: center;'><div id='rectangle'></div><img src='stim-images/object12bluebig.jpg' width='159.8013383032701' height='159.8013383032701'></img></div></div></div>",NA,"html-keyboard-response",16,48146,"0.0-4.0-0.6","74",12,"boti","trial","small",1,"training",159.80133830327,"aibq_dark_tgid",2,1,6.69224501972961
"8",704.6599999303,"<audio src='stimsounds/sprock.mp3', autoplay='true'></audio><div class='displayed'><div style='width: 700px;'><div style='float: center;'><div id='rectangle'></div><img src='stim-images/object18bluebig.jpg' width='362.413879648252' height='362.413879648252'></img></div></div></div>",NA,"html-keyboard-response",18,50105,"0.0-4.0-0.7","70",18,"sprock","trial","big",1,"training",362.413879648252,"aibq_dark_tgid",2,6,6.55771541688047
"9",1055.87999999989,"<audio src='stimsounds/boti.mp3', autoplay='true'></audio><div class='displayed'><div style='width: 700px;'><div style='float: center;'><div id='rectangle'></div><img src='stim-images/object12bluebig.jpg' width='226.9689482214903' height='226.9689482214903'></img></div></div></div>",NA,"html-keyboard-response",20,52415,"0.0-4.0-0.8","74",12,"boti","trial","small",1,"training",226.96894822149,"aibq_dark_tgid",2,3,6.96212982144536
"10",1037.55999996793,"<audio src='stimsounds/sprock.mp3', autoplay='true'></audio><div class='displayed'><div style='width: 700px;'><div style='float: center;'><div id='rectangle'></div><img src='stim-images/object18bluebig.jpg' width='442.35318111612696' height='442.35318111612696'></img></div></div></div>",NA,"html-keyboard-response",22,54707,"0.0-4.0-0.9","70",18,"sprock","trial","big",1,"training",442.353181116127,"aibq_dark_tgid",2,8,6.94462708172707
"11",1394.56000004429,"<audio src='stimsounds/sprock.mp3', autoplay='true'></audio><div class='displayed'><div style='width: 700px;'><div style='float: center;'><div id='rectangle'></div><img src='stim-images/object18bluebig.jpg' width='331.19354873535156' height='331.19354873535156'></img></div></div></div>",NA,"html-keyboard-response",24,57357,"0.0-4.0-0.10","70",18,"sprock","trial","big",1,"training",331.193548735352,"aibq_dark_tgid",3,5,7.24033423234796
"12",1024.65499995742,"<audio src='stimsounds/sprock.mp3', autoplay='true'></audio><div class='displayed'><div style='width: 700px;'><div style='float: center;'><div id='rectangle'></div><img src='stim-images/object18bluebig.jpg' width='377.95552127427624' height='377.95552127427624'></img></div></div></div>",NA,"html-keyboard-response",26,59636,"0.0-4.0-0.11","70",18,"sprock","trial","big",1,"training",377.955521274276,"aibq_dark_tgid",3,6,6.93211124950753
"13",845.8999999566,"<audio src='stimsounds/boti.mp3', autoplay='true'></audio><div class='displayed'><div style='width: 700px;'><div style='float: center;'><div id='rectangle'></div><img src='stim-images/object12bluebig.jpg' width='186.62731360705828' height='186.62731360705828'></img></div></div></div>",NA,"html-keyboard-response",28,61736,"0.0-4.0-0.12","74",12,"boti","trial","small",1,"training",186.627313607058,"aibq_dark_tgid",3,2,6.74040114925866
"14",795.370000065304,"<audio src='stimsounds/sprock.mp3', autoplay='true'></audio><div class='displayed'><div style='width: 700px;'><div style='float: center;'><div id='rectangle'></div><img src='stim-images/object18bluebig.jpg' width='325.02848304530903' height='325.02848304530903'></img></div></div></div>",NA,"html-keyboard-response",30,63786,"0.0-4.0-0.13","70",18,"sprock","trial","big",1,"training",325.028483045309,"aibq_dark_tgid",3,5,6.67880741527238
"15",806.615000008605,"<audio src='stimsounds/boti.mp3', autoplay='true'></audio><div class='displayed'><div style='width: 700px;'><div style='float: center;'><div id='rectangle'></div><img src='stim-images/object12bluebig.jpg' width='170.2870217360263' height='170.2870217360263'></img></div></div></div>",NA,"html-keyboard-response",32,65847,"0.0-4.0-0.14","74",12,"boti","trial","small",1,"training",170.287021736026,"aibq_dark_tgid",4,1,6.69284647885525
"16",1123.37499996647,"<audio src='stimsounds/boti.mp3', autoplay='true'></audio><div class='displayed'><div style='width: 700px;'><div style='float: center;'><div id='rectangle'></div><img src='stim-images/object12bluebig.jpg' width='240.54714330989083' height='240.54714330989083'></img></div></div></div>",NA,"html-keyboard-response",34,68226,"0.0-4.0-0.15","74",12,"boti","trial","small",1,"training",240.547143309891,"aibq_dark_tgid",4,3,7.02409282594869
"17",674.754999927245,"<audio src='stimsounds/boti.mp3', autoplay='true'></audio><div class='displayed'><div style='width: 700px;'><div style='float: center;'><div id='rectangle'></div><img src='stim-images/object12bluebig.jpg' width='187.52534683790543' height='187.52534683790543'></img></div></div></div>",NA,"html-keyboard-response",36,70156,"0.0-4.0-0.16","74",12,"boti","trial","small",1,"training",187.525346837905,"aibq_dark_tgid",4,2,6.51434966191474
"18",735.370000009425,"<audio src='stimsounds/boti.mp3', autoplay='true'></audio><div class='displayed'><div style='width: 700px;'><div style='float: center;'><div id='rectangle'></div><img src='stim-images/object12bluebig.jpg' width='189.75526076018846' height='189.75526076018846'></img></div></div></div>",NA,"html-keyboard-response",38,72146,"0.0-4.0-0.17","74",12,"boti","trial","small",1,"training",189.755260760188,"aibq_dark_tgid",4,2,6.60037377392224
"19",785.784999956377,"<audio src='stimsounds/sprock.mp3', autoplay='true'></audio><div class='displayed'><div style='width: 700px;'><div style='float: center;'><div id='rectangle'></div><img src='stim-images/object18bluebig.jpg' width='366.4671569704768' height='366.4671569704768'></img></div></div></div>",NA,"html-keyboard-response",40,74186,"0.0-4.0-0.18","70",18,"sprock","trial","big",1,"training",366.467156970477,"aibq_dark_tgid",5,6,6.66668321805998
"20",697.404999984428,"<audio src='stimsounds/sprock.mp3', autoplay='true'></audio><div class='displayed'><div style='width: 700px;'><div style='float: center;'><div id='rectangle'></div><img src='stim-images/object18bluebig.jpg' width='401.44407081461276' height='401.44407081461276'></img></div></div></div>",NA,"html-keyboard-response",42,76138,"0.0-4.0-0.19","70",18,"sprock","trial","big",1,"training",401.444070814613,"aibq_dark_tgid",5,7,6.54736630368019
"21",743.505000020377,"<audio src='stimsounds/boti.mp3', autoplay='true'></audio><div class='displayed'><div style='width: 700px;'><div style='float: center;'><div id='rectangle'></div><img src='stim-images/object12bluebig.jpg' width='142.63593773350829' height='142.63593773350829'></img></div></div></div>",NA,"html-keyboard-response",44,78136,"0.0-4.0-0.20","74",12,"boti","trial","small",1,"training",142.635937733508,"aibq_dark_tgid",5,1,6.61137549085457
"22",815.214999951422,"<audio src='stimsounds/boti.mp3', autoplay='true'></audio><div class='displayed'><div style='width: 700px;'><div style='float: center;'><div id='rectangle'></div><img src='stim-images/object12bluebig.jpg' width='140.50978293677355' height='140.50978293677355'></img></div></div></div>",NA,"html-keyboard-response",46,80206,"0.0-4.0-0.21","74",12,"boti","trial","small",1,"training",140.509782936774,"aibq_dark_tgid",5,1,6.70345188207218
"23",845.684999949299,"<audio src='stimsounds/boti.mp3', autoplay='true'></audio><div class='displayed'><div style='width: 700px;'><div style='float: center;'><div id='rectangle'></div><img src='stim-images/object12bluebig.jpg' width='178.34516791420583' height='178.34516791420583'></img></div></div></div>",NA,"html-keyboard-response",48,82306,"0.0-4.0-0.22","74",12,"boti","trial","small",1,"training",178.345167914206,"aibq_dark_tgid",6,1,6.74014694978483
"24",1006.64499995764,"<audio src='stimsounds/sprock.mp3', autoplay='true'></audio><div class='displayed'><div style='width: 700px;'><div style='float: center;'><div id='rectangle'></div><img src='stim-images/object18bluebig.jpg' width='376.83353008996505' height='376.83353008996505'></img></div></div></div>",NA,"html-keyboard-response",50,84566,"0.0-4.0-0.23","70",18,"sprock","trial","big",1,"training",376.833530089965,"aibq_dark_tgid",6,6,6.91437829824829
"25",1227.32499998529,"<audio src='stimsounds/boti.mp3', autoplay='true'></audio><div class='displayed'><div style='width: 700px;'><div style='float: center;'><div id='rectangle'></div><img src='stim-images/object12bluebig.jpg' width='171.69746846648448' height='171.69746846648448'></img></div></div></div>",NA,"html-keyboard-response",52,87048,"0.0-4.0-0.24","74",12,"boti","trial","small",1,"training",171.697468466484,"aibq_dark_tgid",6,1,7.11259228330171
"26",992.830000002868,"<audio src='stimsounds/sprock.mp3', autoplay='true'></audio><div class='displayed'><div style='width: 700px;'><div style='float: center;'><div id='rectangle'></div><img src='stim-images/object18bluebig.jpg' width='366.1309049217933' height='366.1309049217933'></img></div></div></div>",NA,"html-keyboard-response",54,89296,"0.0-4.0-0.25","70",18,"sprock","trial","big",1,"training",366.130904921793,"aibq_dark_tgid",6,6,6.90055945100322
"27",903.755000093952,"<audio src='stimsounds/sprock.mp3', autoplay='true'></audio><div class='displayed'><div style='width: 700px;'><div style='float: center;'><div id='rectangle'></div><img src='stim-images/object18bluebig.jpg' width='382.60049850825965' height='382.60049850825965'></img></div></div></div>",NA,"html-keyboard-response",56,91454,"0.0-4.0-0.26","70",18,"sprock","trial","big",1,"training",382.60049850826,"aibq_dark_tgid",7,7,6.80655830606509
"28",886.015000054613,"<audio src='stimsounds/sprock.mp3', autoplay='true'></audio><div class='displayed'><div style='width: 700px;'><div style='float: center;'><div id='rectangle'></div><img src='stim-images/object18bluebig.jpg' width='415.6326983330823' height='415.6326983330823'></img></div></div></div>",NA,"html-keyboard-response",58,93596,"0.0-4.0-0.27","74",18,"sprock","trial","big",0,"training",415.632698333082,"aibq_dark_tgid",7,7,6.78673388054598
"29",885.019999928772,"<audio src='stimsounds/boti.mp3', autoplay='true'></audio><div class='displayed'><div style='width: 700px;'><div style='float: center;'><div id='rectangle'></div><img src='stim-images/object12bluebig.jpg' width='217.57848136587086' height='217.57848136587086'></img></div></div></div>",NA,"html-keyboard-response",60,95736,"0.0-4.0-0.28","74",12,"boti","trial","small",1,"training",217.578481365871,"aibq_dark_tgid",7,2,6.78561024354215
"30",985.665000043809,"<audio src='stimsounds/boti.mp3', autoplay='true'></audio><div class='displayed'><div style='width: 700px;'><div style='float: center;'><div id='rectangle'></div><img src='stim-images/object12bluebig.jpg' width='214.4299088686375' height='214.4299088686375'></img></div></div></div>",NA,"html-keyboard-response",62,97976,"0.0-4.0-0.29","74",12,"boti","trial","small",1,"training",214.429908868638,"aibq_dark_tgid",7,2,6.89331654032444
"31",707.46499998495,"<div class='displayed'><div style='width: 700px;'><div style='float: center;'><img src='stim-images/object18bluebig.jpg' width='357.57126221503427' height='357.57126221503427'></img></div></div></div><div id='rectangle'></div>",NA,"html-keyboard-response",67,107176,"0.0-6.0-0.1","70",18,"sprock","trial","big",1,"testing",357.571262215034,"aibq_dark_tgid",8,6,6.56168815830778
"32",658.255000016652,"<div class='displayed'><div style='width: 700px;'><div style='float: center;'><img src='stim-images/object18bluebig.jpg' width='298.7246217705403' height='298.7246217705403'></img></div></div></div><div id='rectangle'></div>",NA,"html-keyboard-response",69,108838,"0.0-6.0-0.2","70",18,"sprock","trial","big",1,"testing",298.72462177054,"aibq_dark_tgid",8,4,6.48959239427108
"33",1115.80000002868,"<div class='displayed'><div style='width: 700px;'><div style='float: center;'><img src='stim-images/object12bluebig.jpg' width='232.21158564238905' height='232.21158564238905'></img></div></div></div><div id='rectangle'></div>",NA,"html-keyboard-response",71,110956,"0.0-6.0-0.3","74",12,"boti","trial","small",1,"testing",232.211585642389,"aibq_dark_tgid",8,3,7.01732691543714
"34",717.274999944493,"<div class='displayed'><div style='width: 700px;'><div style='float: center;'><img src='stim-images/object12bluebig.jpg' width='126.72916529717733' height='126.72916529717733'></img></div></div></div><div id='rectangle'></div>",NA,"html-keyboard-response",73,112675,"0.0-6.0-0.4","74",12,"boti","trial","small",1,"testing",126.729165297177,"aibq_dark_tgid",9,0,6.57545930952695
"35",858.100000070408,"<div class='displayed'><div style='width: 700px;'><div style='float: center;'><img src='stim-images/object12bluebig.jpg' width='191.93712016063944' height='191.93712016063944'></img></div></div></div><div id='rectangle'></div>",NA,"html-keyboard-response",75,114536,"0.0-6.0-0.5","74",12,"boti","trial","small",1,"testing",191.937120160639,"aibq_dark_tgid",9,2,6.75472064289513
"36",916.925000026822,"<div class='displayed'><div style='width: 700px;'><div style='float: center;'><img src='stim-images/object18bluebig.jpg' width='276.4761400820539' height='276.4761400820539'></img></div></div></div><div id='rectangle'></div>",NA,"html-keyboard-response",77,116456,"0.0-6.0-0.6","74",18,"sprock","trial","big",0,"testing",276.476140082054,"aibq_dark_tgid",9,4,6.82102568050029
"37",1137.30500009842,"<div class='displayed'><div style='width: 700px;'><div style='float: center;'><img src='stim-images/object18bluebig.jpg' width='431.6222327582391' height='431.6222327582391'></img></div></div></div><div id='rectangle'></div>",NA,"html-keyboard-response",79,118596,"0.0-6.0-0.7","70",18,"sprock","trial","big",1,"testing",431.622232758239,"aibq_dark_tgid",9,8,7.03641670764466
"38",787.57000004407,"<div class='displayed'><div style='width: 700px;'><div style='float: center;'><img src='stim-images/object18bluebig.jpg' width='456.0738566427332' height='456.0738566427332'></img></div></div></div><div id='rectangle'></div>",NA,"html-keyboard-response",81,120388,"0.0-6.0-0.8","70",18,"sprock","trial","big",1,"testing",456.073856642733,"aibq_dark_tgid",10,8,6.66895225569425
"39",815.119999926537,"<div class='displayed'><div style='width: 700px;'><div style='float: center;'><img src='stim-images/object12bluebig.jpg' width='179.44503698070667' height='179.44503698070667'></img></div></div></div><div id='rectangle'></div>",NA,"html-keyboard-response",83,122206,"0.0-6.0-0.9","70",12,"boti","trial","small",0,"testing",179.445036980707,"aibq_dark_tgid",10,1,6.7033353415759
"40",856.754999957047,"<div class='displayed'><div style='width: 700px;'><div style='float: center;'><img src='stim-images/object12bluebig.jpg' width='260.5466966552672' height='260.5466966552672'></img></div></div></div><div id='rectangle'></div>",NA,"html-keyboard-response",85,124066,"0.0-6.0-0.10","74",12,"boti","trial","small",1,"testing",260.546696655267,"aibq_dark_tgid",10,4,6.75315199669572
"41",837.380000040866,"<div class='displayed'><div style='width: 700px;'><div style='float: center;'><img src='stim-images/object18bluebig.jpg' width='318.2853385080034' height='318.2853385080034'></img></div></div></div><div id='rectangle'></div>",NA,"html-keyboard-response",87,125907,"0.0-6.0-0.11","70",18,"sprock","trial","big",1,"testing",318.285338508003,"aibq_dark_tgid",10,5,6.73027796989986
"42",1016.04499993846,"<div class='displayed'><div style='width: 700px;'><div style='float: center;'><img src='stim-images/object18bluebig.jpg' width='389.723203881228' height='389.723203881228'></img></div></div></div><div id='rectangle'></div>",NA,"html-keyboard-response",89,127926,"0.0-6.0-0.12","70",18,"sprock","trial","big",1,"testing",389.723203881228,"aibq_dark_tgid",11,7,6.92367291843561
"43",777.579999994487,"<div class='displayed'><div style='width: 700px;'><div style='float: center;'><img src='stim-images/object18bluebig.jpg' width='340.2907888371345' height='340.2907888371345'></img></div></div></div><div id='rectangle'></div>",NA,"html-keyboard-response",91,129706,"0.0-6.0-0.13","70",18,"sprock","trial","big",1,"testing",340.290788837135,"aibq_dark_tgid",11,6,6.65618653264376
"44",1038.27000001911,"<div class='displayed'><div style='width: 700px;'><div style='float: center;'><img src='stim-images/object12bluebig.jpg' width='214.23149795753562' height='214.23149795753562'></img></div></div></div><div id='rectangle'></div>",NA,"html-keyboard-response",93,131747,"0.0-6.0-0.14","74",12,"boti","trial","small",1,"testing",214.231497957536,"aibq_dark_tgid",11,2,6.94531114552698
"45",655.779999913648,"<div class='displayed'><div style='width: 700px;'><div style='float: center;'><img src='stim-images/object12bluebig.jpg' width='139.79877674272853' height='139.79877674272853'></img></div></div></div><div id='rectangle'></div>",NA,"html-keyboard-response",95,133406,"0.0-6.0-0.15","74",12,"boti","trial","small",1,"testing",139.798776742729,"aibq_dark_tgid",11,0,6.48582536671105
"46",658.434999990277,"<div class='displayed'><div style='width: 700px;'><div style='float: center;'><img src='stim-images/object12bluebig.jpg' width='223.21324706750346' height='223.21324706750346'></img></div></div></div><div id='rectangle'></div>",NA,"html-keyboard-response",97,135067,"0.0-6.0-0.16","74",12,"boti","trial","small",1,"testing",223.213247067503,"aibq_dark_tgid",12,3,6.48986580710895
"47",656.074999948032,"<div class='displayed'><div style='width: 700px;'><div style='float: center;'><img src='stim-images/object12bluebig.jpg' width='292.6585398684822' height='292.6585398684822'></img></div></div></div><div id='rectangle'></div>",NA,"html-keyboard-response",99,136726,"0.0-6.0-0.17","74",12,"boti","trial","small",1,"testing",292.658539868482,"aibq_dark_tgid",12,4,6.48627511159808
"48",654.489999986254,"<div class='displayed'><div style='width: 700px;'><div style='float: center;'><img src='stim-images/object18bluebig.jpg' width='331.1473615615127' height='331.1473615615127'></img></div></div></div><div id='rectangle'></div>",NA,"html-keyboard-response",101,138384,"0.0-6.0-0.18","74",18,"sprock","trial","big",0,"testing",331.147361561513,"aibq_dark_tgid",12,5,6.48385630637342
"49",1878.02500010002,"Press the keyboard key of the letter that comes after the letter d in the alphabet.",NA,"html-keyboard-response",1,6733,"0.0-1.0","69",NA,NA,NA,NA,NA,NA,NA,"arck_wlpe_ufar",0,NA,7.53797597176694
"50",1214.64499994181,"img/speaker.png",0,"image-button-response",2,7950,"0.0-2.0",NA,NA,NA,NA,NA,NA,NA,NA,"arck_wlpe_ufar",0,NA,7.10220713196358
"51",1342.89999993052,"<b>Instructions</b><p>You will see images of two categories of alien fruits, named sprock and blicket .</p> <p>They will come out in random order, one at a time.</p><p>For one category, press the ""F"" key, and for the other category, press the ""J"" key. </p><p>You won't know which key corresponds to which fruit at first, but make your best guesses and over time, you will learn.</p><p>Remember, you will use the ""F"" and ""J"" keys to categorize the fruits.</p><p>Press the space bar to begin.</p>",NA,"html-keyboard-response",3,9294,"0.0-3.0","32",NA,NA,NA,NA,NA,NA,NA,"arck_wlpe_ufar",0,NA,7.20258673353539
"52",1408.54999993462,"<audio src='stimsounds/sprock.mp3', autoplay='true'></audio><div class='displayed'><div style='width: 700px;'><div style='float: center;'><div id='rectangle'></div><img src='stim-images/object8bluebig.jpg' width='337.67464568283737' height='337.67464568283737'></img></div></div></div>",NA,"html-keyboard-response",4,10705,"0.0-4.0-0.0","74",8,"sprock","trial","big",0,"training",337.674645682837,"arck_wlpe_ufar",0,5,7.25031608539749
"53",722.029999946244,"<audio src='stimsounds/sprock.mp3', autoplay='true'></audio><div class='displayed'><div style='width: 700px;'><div style='float: center;'><div id='rectangle'></div><img src='stim-images/object8bluebig.jpg' width='381.1629399108014' height='381.1629399108014'></img></div></div></div>",NA,"html-keyboard-response",6,12684,"0.0-4.0-0.1","70",8,"sprock","trial","big",1,"training",381.162939910801,"arck_wlpe_ufar",0,7,6.58206668920168
"54",508.48999992013,"<audio src='stimsounds/blicket.mp3', autoplay='true'></audio><div class='displayed'><div style='width: 700px;'><div style='float: center;'><div id='rectangle'></div><img src='stim-images/object11bluebig.jpg' width='248.23171204129213' height='248.23171204129213'></img></div></div></div>",NA,"html-keyboard-response",8,14450,"0.0-4.0-0.2","74",11,"blicket","trial","small",1,"training",248.231712041292,"arck_wlpe_ufar",1,3,6.23144554945479
"55",297.045000013895,"<audio src='stimsounds/sprock.mp3', autoplay='true'></audio><div class='displayed'><div style='width: 700px;'><div style='float: center;'><div id='rectangle'></div><img src='stim-images/object8bluebig.jpg' width='282.9357220982917' height='282.9357220982917'></img></div></div></div>",NA,"html-keyboard-response",10,16003,"0.0-4.0-0.3","70",8,"sprock","trial","big",1,"training",282.935722098292,"arck_wlpe_ufar",1,4,5.69388364252373
"56",365.045000100508,"<audio src='stimsounds/sprock.mp3', autoplay='true'></audio><div class='displayed'><div style='width: 700px;'><div style='float: center;'><div id='rectangle'></div><img src='stim-images/object8bluebig.jpg' width='340.29076986881006' height='340.29076986881006'></img></div></div></div>",NA,"html-keyboard-response",12,17623,"0.0-4.0-0.4","70",8,"sprock","trial","big",1,"training",340.29076986881,"arck_wlpe_ufar",1,6,5.90002063392976
"57",363.965000025928,"<audio src='stimsounds/blicket.mp3', autoplay='true'></audio><div class='displayed'><div style='width: 700px;'><div style='float: center;'><div id='rectangle'></div><img src='stim-images/object11bluebig.jpg' width='249.329696148888' height='249.329696148888'></img></div></div></div>",NA,"html-keyboard-response",14,19245,"0.0-4.0-0.5","74",11,"blicket","trial","small",1,"training",249.329696148888,"arck_wlpe_ufar",1,3,5.89705770923875
"58",345.685000065714,"<audio src='stimsounds/blicket.mp3', autoplay='true'></audio><div class='displayed'><div style='width: 700px;'><div style='float: center;'><div id='rectangle'></div><img src='stim-images/object11bluebig.jpg' width='198.57758755497179' height='198.57758755497179'></img></div></div></div>",NA,"html-keyboard-response",16,20850,"0.0-4.0-0.6","74",11,"blicket","trial","small",1,"training",198.577587554972,"arck_wlpe_ufar",2,2,5.84552795595356
"59",350.135000073351,"<audio src='stimsounds/blicket.mp3', autoplay='true'></audio><div class='displayed'><div style='width: 700px;'><div style='float: center;'><div id='rectangle'></div><img src='stim-images/object11bluebig.jpg' width='194.24295802512893' height='194.24295802512893'></img></div></div></div>",NA,"html-keyboard-response",18,22459,"0.0-4.0-0.7","74",11,"blicket","trial","small",1,"training",194.242958025129,"arck_wlpe_ufar",2,2,5.85831879461003
"60",410.285000107251,"<audio src='stimsounds/sprock.mp3', autoplay='true'></audio><div class='displayed'><div style='width: 700px;'><div style='float: center;'><div id='rectangle'></div><img src='stim-images/object8bluebig.jpg' width='277.21620249531145' height='277.21620249531145'></img></div></div></div>",NA,"html-keyboard-response",20,24127,"0.0-4.0-0.8","70",8,"sprock","trial","big",1,"training",277.216202495311,"arck_wlpe_ufar",2,4,6.01685204042562
"61",328.709999914281,"<audio src='stimsounds/blicket.mp3', autoplay='true'></audio><div class='displayed'><div style='width: 700px;'><div style='float: center;'><div id='rectangle'></div><img src='stim-images/object11bluebig.jpg' width='167.19630975641223' height='167.19630975641223'></img></div></div></div>",NA,"html-keyboard-response",22,25714,"0.0-4.0-0.9","74",11,"blicket","trial","small",1,"training",167.196309756412,"arck_wlpe_ufar",2,1,5.79517590282464
"62",299.269999959506,"<audio src='stimsounds/sprock.mp3', autoplay='true'></audio><div class='displayed'><div style='width: 700px;'><div style='float: center;'><div id='rectangle'></div><img src='stim-images/object8bluebig.jpg' width='345.5147896936221' height='345.5147896936221'></img></div></div></div>",NA,"html-keyboard-response",24,27272,"0.0-4.0-0.10","70",8,"sprock","trial","big",1,"training",345.514789693622,"arck_wlpe_ufar",3,6,5.70134617582054
"63",385.514999972656,"<audio src='stimsounds/sprock.mp3', autoplay='true'></audio><div class='displayed'><div style='width: 700px;'><div style='float: center;'><div id='rectangle'></div><img src='stim-images/object8bluebig.jpg' width='360.6350646743845' height='360.6350646743845'></img></div></div></div>",NA,"html-keyboard-response",26,28913,"0.0-4.0-0.11","70",8,"sprock","trial","big",1,"training",360.635064674385,"arck_wlpe_ufar",3,6,5.9545801026813
"64",372.560000047088,"<audio src='stimsounds/sprock.mp3', autoplay='true'></audio><div class='displayed'><div style='width: 700px;'><div style='float: center;'><div id='rectangle'></div><img src='stim-images/object8bluebig.jpg' width='306.10471342997647' height='306.10471342997647'></img></div></div></div>",NA,"html-keyboard-response",28,30541,"0.0-4.0-0.12","70",8,"sprock","trial","big",1,"training",306.104713429976,"arck_wlpe_ufar",3,5,5.92039809880051
"65",381.67999999132,"<audio src='stimsounds/blicket.mp3', autoplay='true'></audio><div class='displayed'><div style='width: 700px;'><div style='float: center;'><div id='rectangle'></div><img src='stim-images/object11bluebig.jpg' width='249.05022840948214' height='249.05022840948214'></img></div></div></div>",NA,"html-keyboard-response",30,32181,"0.0-4.0-0.13","74",11,"blicket","trial","small",1,"training",249.050228409482,"arck_wlpe_ufar",3,3,5.94458256118511
"66",375.394999980927,"<audio src='stimsounds/blicket.mp3', autoplay='true'></audio><div class='displayed'><div style='width: 700px;'><div style='float: center;'><div id='rectangle'></div><img src='stim-images/object11bluebig.jpg' width='194.00919988493396' height='194.00919988493396'></img></div></div></div>",NA,"html-keyboard-response",32,33814,"0.0-4.0-0.14","74",11,"blicket","trial","small",1,"training",194.009199884934,"arck_wlpe_ufar",4,2,5.92797880488663
"67",342.055000015534,"<audio src='stimsounds/sprock.mp3', autoplay='true'></audio><div class='displayed'><div style='width: 700px;'><div style='float: center;'><div id='rectangle'></div><img src='stim-images/object8bluebig.jpg' width='385.0248976965541' height='385.0248976965541'></img></div></div></div>",NA,"html-keyboard-response",34,35414,"0.0-4.0-0.15","70",8,"sprock","trial","big",1,"training",385.024897696554,"arck_wlpe_ufar",4,7,5.83497154289153
"68",349.575000000186,"<audio src='stimsounds/sprock.mp3', autoplay='true'></audio><div class='displayed'><div style='width: 700px;'><div style='float: center;'><div id='rectangle'></div><img src='stim-images/object8bluebig.jpg' width='412.8605432892982' height='412.8605432892982'></img></div></div></div>",NA,"html-keyboard-response",36,37023,"0.0-4.0-0.16","70",8,"sprock","trial","big",1,"training",412.860543289298,"arck_wlpe_ufar",4,7,5.85671813092745
"69",348.995000007562,"<audio src='stimsounds/blicket.mp3', autoplay='true'></audio><div class='displayed'><div style='width: 700px;'><div style='float: center;'><div id='rectangle'></div><img src='stim-images/object11bluebig.jpg' width='167.21451444768363' height='167.21451444768363'></img></div></div></div>",NA,"html-keyboard-response",38,38627,"0.0-4.0-0.17","74",11,"blicket","trial","small",1,"training",167.214514447684,"arck_wlpe_ufar",4,1,5.8550575954739
"70",346.879999968223,"<audio src='stimsounds/sprock.mp3', autoplay='true'></audio><div class='displayed'><div style='width: 700px;'><div style='float: center;'><div id='rectangle'></div><img src='stim-images/object8bluebig.jpg' width='358.3807196818092' height='358.3807196818092'></img></div></div></div>",NA,"html-keyboard-response",40,40232,"0.0-4.0-0.18","70",8,"sprock","trial","big",1,"training",358.380719681809,"arck_wlpe_ufar",5,6,5.84897889871962
"71",297.544999979436,"<audio src='stimsounds/blicket.mp3', autoplay='true'></audio><div class='displayed'><div style='width: 700px;'><div style='float: center;'><div id='rectangle'></div><img src='stim-images/object11bluebig.jpg' width='246.1461474927454' height='246.1461474927454'></img></div></div></div>",NA,"html-keyboard-response",42,41787,"0.0-4.0-0.19","74",11,"blicket","trial","small",1,"training",246.146147492745,"arck_wlpe_ufar",5,3,5.69556547398206
"72",289.740000036545,"<audio src='stimsounds/sprock.mp3', autoplay='true'></audio><div class='displayed'><div style='width: 700px;'><div style='float: center;'><div id='rectangle'></div><img src='stim-images/object8bluebig.jpg' width='357.01537839832804' height='357.01537839832804'></img></div></div></div>",NA,"html-keyboard-response",44,43332,"0.0-4.0-0.20","70",8,"sprock","trial","big",1,"training",357.015378398328,"arck_wlpe_ufar",5,6,5.66898396923964
"73",417.3750000773,"<audio src='stimsounds/sprock.mp3', autoplay='true'></audio><div class='displayed'><div style='width: 700px;'><div style='float: center;'><div id='rectangle'></div><img src='stim-images/object8bluebig.jpg' width='344.7991203704889' height='344.7991203704889'></img></div></div></div>",NA,"html-keyboard-response",46,45005,"0.0-4.0-0.21","70",8,"sprock","trial","big",1,"training",344.799120370489,"arck_wlpe_ufar",5,6,6.03398509844902
"74",281.584999989718,"<audio src='stimsounds/blicket.mp3', autoplay='true'></audio><div class='displayed'><div style='width: 700px;'><div style='float: center;'><div id='rectangle'></div><img src='stim-images/object11bluebig.jpg' width='159.79565644983177' height='159.79565644983177'></img></div></div></div>",NA,"html-keyboard-response",48,46546,"0.0-4.0-0.22","74",11,"blicket","trial","small",1,"training",159.795656449832,"arck_wlpe_ufar",6,1,5.64043435578318
"75",358.604999957606,"<audio src='stimsounds/blicket.mp3', autoplay='true'></audio><div class='displayed'><div style='width: 700px;'><div style='float: center;'><div id='rectangle'></div><img src='stim-images/object11bluebig.jpg' width='225.68281484522976' height='225.68281484522976'></img></div></div></div>",NA,"html-keyboard-response",50,48163,"0.0-4.0-0.23","74",11,"blicket","trial","small",1,"training",225.68281484523,"arck_wlpe_ufar",6,3,5.88222150406771
"76",312.374999979511,"<audio src='stimsounds/sprock.mp3', autoplay='true'></audio><div class='displayed'><div style='width: 700px;'><div style='float: center;'><div id='rectangle'></div><img src='stim-images/object8bluebig.jpg' width='321.65026341904513' height='321.65026341904513'></img></div></div></div>",NA,"html-keyboard-response",52,49734,"0.0-4.0-0.24","70",8,"sprock","trial","big",1,"training",321.650263419045,"arck_wlpe_ufar",6,5,5.74420438908952
"77",348.445000010543,"<audio src='stimsounds/blicket.mp3', autoplay='true'></audio><div class='displayed'><div style='width: 700px;'><div style='float: center;'><div id='rectangle'></div><img src='stim-images/object11bluebig.jpg' width='100.96734879710324' height='100.96734879710324'></img></div></div></div>",NA,"html-keyboard-response",54,51340,"0.0-4.0-0.25","74",11,"blicket","trial","small",1,"training",100.967348797103,"arck_wlpe_ufar",6,0,5.85348039855082
"78",372.220000019297,"<audio src='stimsounds/blicket.mp3', autoplay='true'></audio><div class='displayed'><div style='width: 700px;'><div style='float: center;'><div id='rectangle'></div><img src='stim-images/object11bluebig.jpg' width='186.25624794495056' height='186.25624794495056'></img></div></div></div>",NA,"html-keyboard-response",56,52970,"0.0-4.0-0.26","74",11,"blicket","trial","small",1,"training",186.256247944951,"arck_wlpe_ufar",7,2,5.91948507736766
"79",329.014999908395,"<audio src='stimsounds/blicket.mp3', autoplay='true'></audio><div class='displayed'><div style='width: 700px;'><div style='float: center;'><div id='rectangle'></div><img src='stim-images/object11bluebig.jpg' width='229.2501368644467' height='229.2501368644467'></img></div></div></div>",NA,"html-keyboard-response",58,54558,"0.0-4.0-0.27","70",11,"blicket","trial","small",0,"training",229.250136864447,"arck_wlpe_ufar",7,3,5.7961033421528
"80",536.505000083707,"<audio src='stimsounds/sprock.mp3', autoplay='true'></audio><div class='displayed'><div style='width: 700px;'><div style='float: center;'><div id='rectangle'></div><img src='stim-images/object8bluebig.jpg' width='351.3391175563836' height='351.3391175563836'></img></div></div></div>",NA,"html-keyboard-response",60,56349,"0.0-4.0-0.28","70",8,"sprock","trial","big",1,"training",351.339117556384,"arck_wlpe_ufar",7,6,6.28507588184784
"81",338.514999952167,"<audio src='stimsounds/blicket.mp3', autoplay='true'></audio><div class='displayed'><div style='width: 700px;'><div style='float: center;'><div id='rectangle'></div><img src='stim-images/object11bluebig.jpg' width='193.82745873654954' height='193.82745873654954'></img></div></div></div>",NA,"html-keyboard-response",62,57942,"0.0-4.0-0.29","74",11,"blicket","trial","small",1,"training",193.82745873655,"arck_wlpe_ufar",7,2,5.82456840437546
"82",1016.90499996766,"We will now begin the testing phase. <p>Press F for sprock. Press J for blicket. Please go as quickly as you can without making mistakes.</p> <p>Press Space to begin.</p>",NA,"html-keyboard-response",64,60214,"0.0-5.0-0.0","32",NA,NA,NA,NA,NA,NA,NA,"arck_wlpe_ufar",8,NA,6.92451897965752
"83",1133.2499999553,"<div class='displayed'><div style='width: 700px;'><div style='float: center;'><img src='stim-images/object8bluebig.jpg' width='459.89384669255963' height='459.89384669255963'></img></div></div></div><div id='rectangle'></div>",NA,"html-keyboard-response",65,61349,"0.0-6.0-0.0","70",8,"sprock","trial","big",1,"testing",459.89384669256,"arck_wlpe_ufar",8,8,7.03284488978151
"84",274.915000074543,"<div class='displayed'><div style='width: 700px;'><div style='float: center;'><img src='stim-images/object8bluebig.jpg' width='409.788150109791' height='409.788150109791'></img></div></div></div><div id='rectangle'></div>",NA,"html-keyboard-response",67,62630,"0.0-6.0-0.1","74",8,"sprock","trial","big",0,"testing",409.788150109791,"arck_wlpe_ufar",8,7,5.61646195925019
"85",421.109999995679,"<div class='displayed'><div style='width: 700px;'><div style='float: center;'><img src='stim-images/object8bluebig.jpg' width='398.8645182769395' height='398.8645182769395'></img></div></div></div><div id='rectangle'></div>",NA,"html-keyboard-response",69,64058,"0.0-6.0-0.2","70",8,"sprock","trial","big",1,"testing",398.86451827694,"arck_wlpe_ufar",8,7,6.04289408220408
"86",393.509999965318,"<div class='displayed'><div style='width: 700px;'><div style='float: center;'><img src='stim-images/object8bluebig.jpg' width='319.12541660965496' height='319.12541660965496'></img></div></div></div><div id='rectangle'></div>",NA,"html-keyboard-response",71,65456,"0.0-6.0-0.3","74",8,"sprock","trial","big",0,"testing",319.125416609655,"arck_wlpe_ufar",8,5,5.97510648040703
"87",365.044999984093,"<div class='displayed'><div style='width: 700px;'><div style='float: center;'><img src='stim-images/object11bluebig.jpg' width='250.54917427050168' height='250.54917427050168'></img></div></div></div><div id='rectangle'></div>",NA,"html-keyboard-response",73,66827,"0.0-6.0-0.4","74",11,"blicket","trial","small",1,"testing",250.549174270502,"arck_wlpe_ufar",9,3,5.90002063361085
"88",423.39999997057,"<div class='displayed'><div style='width: 700px;'><div style='float: center;'><img src='stim-images/object8bluebig.jpg' width='323.18249562491326' height='323.18249562491326'></img></div></div></div><div id='rectangle'></div>",NA,"html-keyboard-response",75,68255,"0.0-6.0-0.5","70",8,"sprock","trial","big",1,"testing",323.182495624913,"arck_wlpe_ufar",9,5,6.04831735863126
"89",349.72000005655,"<div class='displayed'><div style='width: 700px;'><div style='float: center;'><img src='stim-images/object11bluebig.jpg' width='146.1926787806422' height='146.1926787806422'></img></div></div></div><div id='rectangle'></div>",NA,"html-keyboard-response",77,69608,"0.0-6.0-0.6","74",11,"blicket","trial","small",1,"testing",146.192678780642,"arck_wlpe_ufar",9,1,5.85713283447439
"90",323.43500002753,"<div class='displayed'><div style='width: 700px;'><div style='float: center;'><img src='stim-images/object11bluebig.jpg' width='158.37062730144055' height='158.37062730144055'></img></div></div></div><div id='rectangle'></div>",NA,"html-keyboard-response",79,70935,"0.0-6.0-0.7","74",11,"blicket","trial","small",1,"testing",158.370627301441,"arck_wlpe_ufar",9,1,5.77899816648043
"91",346.800000057556,"<div class='displayed'><div style='width: 700px;'><div style='float: center;'><img src='stim-images/object11bluebig.jpg' width='291.379480115899' height='291.379480115899'></img></div></div></div><div id='rectangle'></div>",NA,"html-keyboard-response",81,72288,"0.0-6.0-0.8","74",11,"blicket","trial","small",1,"testing",291.379480115899,"arck_wlpe_ufar",10,4,5.84874824507235
"92",381.58500008285,"<div class='displayed'><div style='width: 700px;'><div style='float: center;'><img src='stim-images/object8bluebig.jpg' width='376.09793336992425' height='376.09793336992425'></img></div></div></div><div id='rectangle'></div>",NA,"html-keyboard-response",83,73674,"0.0-6.0-0.9","70",8,"sprock","trial","big",1,"testing",376.097933369924,"arck_wlpe_ufar",10,6,5.94433363084257
"93",369.174999999814,"<div class='displayed'><div style='width: 700px;'><div style='float: center;'><img src='stim-images/object11bluebig.jpg' width='202.15726210801344' height='202.15726210801344'></img></div></div></div><div id='rectangle'></div>",NA,"html-keyboard-response",85,75047,"0.0-6.0-0.10","74",11,"blicket","trial","small",1,"testing",202.157262108013,"arck_wlpe_ufar",10,2,5.91127078635933
"94",325.985000003129,"<div class='displayed'><div style='width: 700px;'><div style='float: center;'><img src='stim-images/object11bluebig.jpg' width='234.94917581407915' height='234.94917581407915'></img></div></div></div><div id='rectangle'></div>",NA,"html-keyboard-response",87,76378,"0.0-6.0-0.11","74",11,"blicket","trial","small",1,"testing",234.949175814079,"arck_wlpe_ufar",10,3,5.78685136804777
"95",315.485000028275,"<div class='displayed'><div style='width: 700px;'><div style='float: center;'><img src='stim-images/object8bluebig.jpg' width='260.69234492630676' height='260.69234492630676'></img></div></div></div><div id='rectangle'></div>",NA,"html-keyboard-response",89,77698,"0.0-6.0-0.12","74",8,"sprock","trial","big",0,"testing",260.692344926307,"arck_wlpe_ufar",11,4,5.75411113735904
"96",427.155000041239,"<div class='displayed'><div style='width: 700px;'><div style='float: center;'><img src='stim-images/object8bluebig.jpg' width='440.0060761130593' height='440.0060761130593'></img></div></div></div><div id='rectangle'></div>",NA,"html-keyboard-response",91,79130,"0.0-6.0-0.13","70",8,"sprock","trial","big",1,"testing",440.006076113059,"arck_wlpe_ufar",11,8,6.05714694511554
"97",348.269999958575,"<div class='displayed'><div style='width: 700px;'><div style='float: center;'><img src='stim-images/object8bluebig.jpg' width='375.5152713705774' height='375.5152713705774'></img></div></div></div><div id='rectangle'></div>",NA,"html-keyboard-response",93,80483,"0.0-6.0-0.14","70",8,"sprock","trial","big",1,"testing",375.515271370577,"arck_wlpe_ufar",11,6,5.85297804089911
"98",455.259999958798,"<div class='displayed'><div style='width: 700px;'><div style='float: center;'><img src='stim-images/object11bluebig.jpg' width='273.534186416408' height='273.534186416408'></img></div></div></div><div id='rectangle'></div>",NA,"html-keyboard-response",95,81943,"0.0-6.0-0.15","74",11,"blicket","trial","small",1,"testing",273.534186416408,"arck_wlpe_ufar",11,4,6.12086868422874
"99",365.175000042655,"<div class='displayed'><div style='width: 700px;'><div style='float: center;'><img src='stim-images/object11bluebig.jpg' width='130.2290576075888' height='130.2290576075888'></img></div></div></div><div id='rectangle'></div>",NA,"html-keyboard-response",97,83312,"0.0-6.0-0.16","74",11,"blicket","trial","small",1,"testing",130.229057607589,"arck_wlpe_ufar",12,0,5.90037669085368
"100",474.225000012666,"<div class='displayed'><div style='width: 700px;'><div style='float: center;'><img src='stim-images/object8bluebig.jpg' width='264.57706495480386' height='264.57706495480386'></img></div></div></div><div id='rectangle'></div>",NA,"html-keyboard-response",99,84792,"0.0-6.0-0.17","74",8,"sprock","trial","big",0,"testing",264.577064954804,"arck_wlpe_ufar",12,4,6.1616818926395
"101",409.089999971911,"<div class='displayed'><div style='width: 700px;'><div style='float: center;'><img src='stim-images/object11bluebig.jpg' width='186.245724673077' height='186.245724673077'></img></div></div></div><div id='rectangle'></div>",NA,"html-keyboard-response",101,86206,"0.0-6.0-0.18","74",11,"blicket","trial","small",1,"testing",186.245724673077,"arck_wlpe_ufar",12,2,6.01393518066669
"102",568.940000026487,"<div class='displayed'><div style='width: 700px;'><div style='float: center;'><img src='stim-images/object11bluebig.jpg' width='135.24060416209002' height='135.24060416209002'></img></div></div></div><div id='rectangle'></div>",NA,"html-keyboard-response",103,87782,"0.0-6.0-0.19","74",11,"blicket","trial","small",1,"testing",135.24060416209,"arck_wlpe_ufar",12,0,6.34377498045818
"103",1831.03000000119,"<b>Thank you for completing this experiment!</b><p></p><p class='block-text-debrief'>This experiment is a replication of previous work on category learning from direct experience showing that people categorize typical members of a category more quickly than atypical ones. In this case, we are looking to see if participants are faster to categorize alien fruits that are more typical of their categories (closer to the center of the size distribution of the category). That is, participants will categorize big sprocks and small blickets more quickly than small sprocks and big blickets.</p><p>Thank you for your participation!</p>",0,"html-button-response",105,90617,"0.0-7.0",NA,NA,NA,NA,NA,NA,NA,NA,"arck_wlpe_ufar",13,NA,7.51263392903029
"104",1268.25500000268,"Press the keyboard key of the letter that comes after the letter d in the alphabet.",NA,"html-keyboard-response",1,10320,"0.0-1.0","69",NA,NA,NA,NA,NA,NA,NA,"awix_ffgv_zuwr",0,NA,7.14539721888151
"105",2592.85000000091,"<audio src='stimsounds/koba.mp3', autoplay='true'></audio><div class='displayed'><div style='width: 700px;'><div style='float: center;'><div id='rectangle'></div><img src='stim-images/object4bluebig.jpg' width='201.33343872512035' height='201.33343872512035'></img></div></div></div>",NA,"html-keyboard-response",4,27394,"0.0-4.0-0.0","70",4,"koba","trial","small",0,"training",201.33343872512,"awix_ffgv_zuwr",0,2,7.8605129358133
"106",1478.06499998842,"<audio src='stimsounds/blicket.mp3', autoplay='true'></audio><div class='displayed'><div style='width: 700px;'><div style='float: center;'><div id='rectangle'></div><img src='stim-images/object13bluebig.jpg' width='306.4945484554046' height='306.4945484554046'></img></div></div></div>",NA,"html-keyboard-response",6,30131,"0.0-4.0-0.1","70",13,"blicket","trial","big",1,"training",306.494548455405,"awix_ffgv_zuwr",0,5,7.29848907888241
"107",1507.44500001019,"<audio src='stimsounds/koba.mp3', autoplay='true'></audio><div class='displayed'><div style='width: 700px;'><div style='float: center;'><div id='rectangle'></div><img src='stim-images/object4bluebig.jpg' width='154.6524798482555' height='154.6524798482555'></img></div></div></div>",NA,"html-keyboard-response",8,32899,"0.0-4.0-0.2","74",4,"koba","trial","small",1,"training",154.652479848255,"awix_ffgv_zuwr",1,1,7.3181714436971
"108",844.669999991311,"<audio src='stimsounds/blicket.mp3', autoplay='true'></audio><div class='displayed'><div style='width: 700px;'><div style='float: center;'><div id='rectangle'></div><img src='stim-images/object13bluebig.jpg' width='368.41250856211616' height='368.41250856211616'></img></div></div></div>",NA,"html-keyboard-response",12,39363,"0.0-4.0-0.4","70",13,"blicket","trial","big",1,"training",368.412508562116,"awix_ffgv_zuwr",1,6,6.73894601852481
"109",711.060000001453,"<audio src='stimsounds/blicket.mp3', autoplay='true'></audio><div class='displayed'><div style='width: 700px;'><div style='float: center;'><div id='rectangle'></div><img src='stim-images/object13bluebig.jpg' width='367.0744211238478' height='367.0744211238478'></img></div></div></div>",NA,"html-keyboard-response",14,41332,"0.0-4.0-0.5","70",13,"blicket","trial","big",1,"training",367.074421123848,"awix_ffgv_zuwr",1,6,6.56675681443046
"110",623.540000000503,"<audio src='stimsounds/koba.mp3', autoplay='true'></audio><div class='displayed'><div style='width: 700px;'><div style='float: center;'><div id='rectangle'></div><img src='stim-images/object4bluebig.jpg' width='203.48783690476017' height='203.48783690476017'></img></div></div></div>",NA,"html-keyboard-response",16,43219,"0.0-4.0-0.6","74",4,"koba","trial","small",1,"training",203.48783690476,"awix_ffgv_zuwr",2,2,6.43541291703265
"111",584.449999994831,"<audio src='stimsounds/blicket.mp3', autoplay='true'></audio><div class='displayed'><div style='width: 700px;'><div style='float: center;'><div id='rectangle'></div><img src='stim-images/object13bluebig.jpg' width='336.34064166938003' height='336.34064166938003'></img></div></div></div>",NA,"html-keyboard-response",18,45067,"0.0-4.0-0.7","70",13,"blicket","trial","big",1,"training",336.34064166938,"awix_ffgv_zuwr",2,5,6.37067123404494
"112",529.96999998868,"<audio src='stimsounds/koba.mp3', autoplay='true'></audio><div class='displayed'><div style='width: 700px;'><div style='float: center;'><div id='rectangle'></div><img src='stim-images/object4bluebig.jpg' width='292.40477400354104' height='292.40477400354104'></img></div></div></div>",NA,"html-keyboard-response",20,46858,"0.0-4.0-0.8","74",4,"koba","trial","small",1,"training",292.404774003541,"awix_ffgv_zuwr",2,4,6.27282040114917
"113",638.104999990901,"<audio src='stimsounds/koba.mp3', autoplay='true'></audio><div class='displayed'><div style='width: 700px;'><div style='float: center;'><div id='rectangle'></div><img src='stim-images/object4bluebig.jpg' width='216.0127624372424' height='216.0127624372424'></img></div></div></div>",NA,"html-keyboard-response",22,48755,"0.0-4.0-0.9","74",4,"koba","trial","small",1,"training",216.012762437242,"awix_ffgv_zuwr",2,2,6.45850284659176
"114",500.094999995781,"<audio src='stimsounds/koba.mp3', autoplay='true'></audio><div class='displayed'><div style='width: 700px;'><div style='float: center;'><div id='rectangle'></div><img src='stim-images/object4bluebig.jpg' width='218.22078593705953' height='218.22078593705953'></img></div></div></div>",NA,"html-keyboard-response",24,50515,"0.0-4.0-0.10","74",4,"koba","trial","small",1,"training",218.22078593706,"awix_ffgv_zuwr",3,2,6.21479808036604
"115",508.819999988191,"<audio src='stimsounds/koba.mp3', autoplay='true'></audio><div class='displayed'><div style='width: 700px;'><div style='float: center;'><div id='rectangle'></div><img src='stim-images/object4bluebig.jpg' width='235.14904332087798' height='235.14904332087798'></img></div></div></div>",NA,"html-keyboard-response",26,52282,"0.0-4.0-0.11","74",4,"koba","trial","small",1,"training",235.149043320878,"awix_ffgv_zuwr",3,3,6.23209431940626
"116",522.080000009737,"<audio src='stimsounds/blicket.mp3', autoplay='true'></audio><div class='displayed'><div style='width: 700px;'><div style='float: center;'><div id='rectangle'></div><img src='stim-images/object13bluebig.jpg' width='354.5439626604101' height='354.5439626604101'></img></div></div></div>",NA,"html-keyboard-response",28,54067,"0.0-4.0-0.12","70",13,"blicket","trial","big",1,"training",354.54396266041,"awix_ffgv_zuwr",3,6,6.25782083286366
"117",429.040000002715,"<audio src='stimsounds/blicket.mp3', autoplay='true'></audio><div class='displayed'><div style='width: 700px;'><div style='float: center;'><div id='rectangle'></div><img src='stim-images/object13bluebig.jpg' width='346.55139979484983' height='346.55139979484983'></img></div></div></div>",NA,"html-keyboard-response",30,55755,"0.0-4.0-0.13","70",13,"blicket","trial","big",1,"training",346.55139979485,"awix_ffgv_zuwr",3,6,6.061550154681
"118",420.389999999315,"<audio src='stimsounds/blicket.mp3', autoplay='true'></audio><div class='displayed'><div style='width: 700px;'><div style='float: center;'><div id='rectangle'></div><img src='stim-images/object13bluebig.jpg' width='334.4216573284576' height='334.4216573284576'></img></div></div></div>",NA,"html-keyboard-response",32,57435,"0.0-4.0-0.14","70",13,"blicket","trial","big",1,"training",334.421657328458,"awix_ffgv_zuwr",4,5,6.04118285184861
"119",589.334999996936,"<audio src='stimsounds/koba.mp3', autoplay='true'></audio><div class='displayed'><div style='width: 700px;'><div style='float: center;'><div id='rectangle'></div><img src='stim-images/object4bluebig.jpg' width='283.92340006551194' height='283.92340006551194'></img></div></div></div>",NA,"html-keyboard-response",34,59284,"0.0-4.0-0.15","74",4,"koba","trial","small",1,"training",283.923400065512,"awix_ffgv_zuwr",4,4,6.37899478257458
"120",610.860000000685,"<audio src='stimsounds/blicket.mp3', autoplay='true'></audio><div class='displayed'><div style='width: 700px;'><div style='float: center;'><div id='rectangle'></div><img src='stim-images/object13bluebig.jpg' width='362.67244412721936' height='362.67244412721936'></img></div></div></div>",NA,"html-keyboard-response",36,61155,"0.0-4.0-0.16","70",13,"blicket","trial","big",1,"training",362.672444127219,"awix_ffgv_zuwr",4,6,6.41486780034828
"121",415.670000002137,"<audio src='stimsounds/blicket.mp3', autoplay='true'></audio><div class='displayed'><div style='width: 700px;'><div style='float: center;'><div id='rectangle'></div><img src='stim-images/object13bluebig.jpg' width='348.50397865061973' height='348.50397865061973'></img></div></div></div>",NA,"html-keyboard-response",38,62834,"0.0-4.0-0.17","70",13,"blicket","trial","big",1,"training",348.50397865062,"awix_ffgv_zuwr",4,6,6.02989167623111
"122",500.755000000936,"<audio src='stimsounds/blicket.mp3', autoplay='true'></audio><div class='displayed'><div style='width: 700px;'><div style='float: center;'><div id='rectangle'></div><img src='stim-images/object13bluebig.jpg' width='369.258276164045' height='369.258276164045'></img></div></div></div>",NA,"html-keyboard-response",40,64596,"0.0-4.0-0.18","70",13,"blicket","trial","big",1,"training",369.258276164045,"awix_ffgv_zuwr",5,6,6.21611695952041
"123",379.11000000895,"<audio src='stimsounds/blicket.mp3', autoplay='true'></audio><div class='displayed'><div style='width: 700px;'><div style='float: center;'><div id='rectangle'></div><img src='stim-images/object13bluebig.jpg' width='396.1040834159271' height='396.1040834159271'></img></div></div></div>",NA,"html-keyboard-response",42,66236,"0.0-4.0-0.19","70",13,"blicket","trial","big",1,"training",396.104083415927,"awix_ffgv_zuwr",5,7,5.93782640046231
"124",672.025000007125,"<audio src='stimsounds/koba.mp3', autoplay='true'></audio><div class='displayed'><div style='width: 700px;'><div style='float: center;'><div id='rectangle'></div><img src='stim-images/object4bluebig.jpg' width='142.26699722233363' height='142.26699722233363'></img></div></div></div>",NA,"html-keyboard-response",44,68171,"0.0-4.0-0.20","74",4,"koba","trial","small",1,"training",142.266997222334,"awix_ffgv_zuwr",5,1,6.51029554222271
"125",506.365000008373,"<audio src='stimsounds/koba.mp3', autoplay='true'></audio><div class='displayed'><div style='width: 700px;'><div style='float: center;'><div id='rectangle'></div><img src='stim-images/object4bluebig.jpg' width='232.6721929265574' height='232.6721929265574'></img></div></div></div>",NA,"html-keyboard-response",46,69939,"0.0-4.0-0.21","74",4,"koba","trial","small",1,"training",232.672192926557,"awix_ffgv_zuwr",5,3,6.22725775313407
"126",388.289999988046,"<audio src='stimsounds/koba.mp3', autoplay='true'></audio><div class='displayed'><div style='width: 700px;'><div style='float: center;'><div id='rectangle'></div><img src='stim-images/object4bluebig.jpg' width='167.9371309073481' height='167.9371309073481'></img></div></div></div>",NA,"html-keyboard-response",48,71587,"0.0-4.0-0.22","74",4,"koba","trial","small",1,"training",167.937130907348,"awix_ffgv_zuwr",6,1,5.96175248309167
"127",365.83999999857,"<audio src='stimsounds/koba.mp3', autoplay='true'></audio><div class='displayed'><div style='width: 700px;'><div style='float: center;'><div id='rectangle'></div><img src='stim-images/object4bluebig.jpg' width='145.2865395618806' height='145.2865395618806'></img></div></div></div>",NA,"html-keyboard-response",50,73211,"0.0-4.0-0.23","74",4,"koba","trial","small",1,"training",145.286539561881,"awix_ffgv_zuwr",6,1,5.90219607934589
"128",362.819999994827,"<audio src='stimsounds/koba.mp3', autoplay='true'></audio><div class='displayed'><div style='width: 700px;'><div style='float: center;'><div id='rectangle'></div><img src='stim-images/object4bluebig.jpg' width='103.00362135795493' height='103.00362135795493'></img></div></div></div>",NA,"html-keyboard-response",52,74835,"0.0-4.0-0.24","74",4,"koba","trial","small",1,"training",103.003621357955,"awix_ffgv_zuwr",6,0,5.89390684349892
"129",753.884999998263,"<audio src='stimsounds/koba.mp3', autoplay='true'></audio><div class='displayed'><div style='width: 700px;'><div style='float: center;'><div id='rectangle'></div><img src='stim-images/object4bluebig.jpg' width='194.4606181902232' height='194.4606181902232'></img></div></div></div>",NA,"html-keyboard-response",54,76850,"0.0-4.0-0.25","74",4,"koba","trial","small",1,"training",194.460618190223,"awix_ffgv_zuwr",6,2,6.62523983647941
"130",489.805000004708,"<audio src='stimsounds/blicket.mp3', autoplay='true'></audio><div class='displayed'><div style='width: 700px;'><div style='float: center;'><div id='rectangle'></div><img src='stim-images/object13bluebig.jpg' width='317.1146898922203' height='317.1146898922203'></img></div></div></div>",NA,"html-keyboard-response",56,78602,"0.0-4.0-0.26","70",13,"blicket","trial","big",1,"training",317.11468989222,"awix_ffgv_zuwr",7,5,6.19400735272384
"131",404.934999998659,"<audio src='stimsounds/blicket.mp3', autoplay='true'></audio><div class='displayed'><div style='width: 700px;'><div style='float: center;'><div id='rectangle'></div><img src='stim-images/object13bluebig.jpg' width='266.72860066916377' height='266.72860066916377'></img></div></div></div>",NA,"html-keyboard-response",58,80266,"0.0-4.0-0.27","70",13,"blicket","trial","big",1,"training",266.728600669164,"awix_ffgv_zuwr",7,4,6.00372656039555
"132",412.445000009029,"<audio src='stimsounds/blicket.mp3', autoplay='true'></audio><div class='displayed'><div style='width: 700px;'><div style='float: center;'><div id='rectangle'></div><img src='stim-images/object13bluebig.jpg' width='409.7793654053226' height='409.7793654053226'></img></div></div></div>",NA,"html-keyboard-response",60,81938,"0.0-4.0-0.28","70",13,"blicket","trial","big",1,"training",409.779365405323,"awix_ffgv_zuwr",7,7,6.02210286357361
"133",381.095000004279,"<audio src='stimsounds/blicket.mp3', autoplay='true'></audio><div class='displayed'><div style='width: 700px;'><div style='float: center;'><div id='rectangle'></div><img src='stim-images/object13bluebig.jpg' width='275.59131125419873' height='275.59131125419873'></img></div></div></div>",NA,"html-keyboard-response",62,83579,"0.0-4.0-0.29","70",13,"blicket","trial","big",1,"training",275.591311254199,"awix_ffgv_zuwr",7,4,5.94304868788894
"134",770.439999992959,"<div class='displayed'><div style='width: 700px;'><div style='float: center;'><img src='stim-images/object13bluebig.jpg' width='304.82368574473935' height='304.82368574473935'></img></div></div></div><div id='rectangle'></div>",NA,"html-keyboard-response",65,88818,"0.0-6.0-0.0","70",13,"blicket","trial","big",1,"testing",304.823685744739,"awix_ffgv_zuwr",8,5,6.64696178020688
"135",503.824999992503,"<div class='displayed'><div style='width: 700px;'><div style='float: center;'><img src='stim-images/object4bluebig.jpg' width='278.26773251804536' height='278.26773251804536'></img></div></div></div><div id='rectangle'></div>",NA,"html-keyboard-response",67,90332,"0.0-6.0-0.1","74",4,"koba","trial","small",1,"testing",278.267732518045,"awix_ffgv_zuwr",8,4,6.22222898553867
"136",365.869999994175,"<div class='displayed'><div style='width: 700px;'><div style='float: center;'><img src='stim-images/object13bluebig.jpg' width='287.82042531779376' height='287.82042531779376'></img></div></div></div><div id='rectangle'></div>",NA,"html-keyboard-response",69,91714,"0.0-6.0-0.2","70",13,"blicket","trial","big",1,"testing",287.820425317794,"awix_ffgv_zuwr",8,4,5.90227807903326
"137",442.829999999958,"<div class='displayed'><div style='width: 700px;'><div style='float: center;'><img src='stim-images/object13bluebig.jpg' width='375.61815700423915' height='375.61815700423915'></img></div></div></div><div id='rectangle'></div>",NA,"html-keyboard-response",71,93163,"0.0-6.0-0.3","70",13,"blicket","trial","big",1,"testing",375.618157004239,"awix_ffgv_zuwr",8,6,6.09318594921692
"138",568.174999993062,"<div class='displayed'><div style='width: 700px;'><div style='float: center;'><img src='stim-images/object4bluebig.jpg' width='145.31766836026856' height='145.31766836026856'></img></div></div></div><div id='rectangle'></div>",NA,"html-keyboard-response",73,94738,"0.0-6.0-0.4","74",4,"koba","trial","small",1,"testing",145.317668360269,"awix_ffgv_zuwr",9,1,6.34242946984786
"139",361.794999989797,"<div class='displayed'><div style='width: 700px;'><div style='float: center;'><img src='stim-images/object4bluebig.jpg' width='110.43008441833928' height='110.43008441833928'></img></div></div></div><div id='rectangle'></div>",NA,"html-keyboard-response",75,96106,"0.0-6.0-0.5","74",4,"koba","trial","small",1,"testing",110.430084418339,"awix_ffgv_zuwr",9,0,5.89107775304756
"140",351.119999992079,"<div class='displayed'><div style='width: 700px;'><div style='float: center;'><img src='stim-images/object4bluebig.jpg' width='211.18963834752896' height='211.18963834752896'></img></div></div></div><div id='rectangle'></div>",NA,"html-keyboard-response",77,97466,"0.0-6.0-0.6","74",4,"koba","trial","small",1,"testing",211.189638347529,"awix_ffgv_zuwr",9,2,5.86112804535742
"141",344.785000008414,"<div class='displayed'><div style='width: 700px;'><div style='float: center;'><img src='stim-images/object4bluebig.jpg' width='159.92233986984772' height='159.92233986984772'></img></div></div></div><div id='rectangle'></div>",NA,"html-keyboard-response",79,98818,"0.0-6.0-0.7","74",4,"koba","trial","small",1,"testing",159.922339869848,"awix_ffgv_zuwr",9,1,5.84292103438736
"142",433.975000007194,"<div class='displayed'><div style='width: 700px;'><div style='float: center;'><img src='stim-images/object13bluebig.jpg' width='387.63684981327305' height='387.63684981327305'></img></div></div></div><div id='rectangle'></div>",NA,"html-keyboard-response",81,100259,"0.0-6.0-0.8","70",13,"blicket","trial","big",1,"testing",387.636849813273,"awix_ffgv_zuwr",10,7,6.07298692877119
"143",454.999999987194,"<div class='displayed'><div style='width: 700px;'><div style='float: center;'><img src='stim-images/object4bluebig.jpg' width='196.91810514209718' height='196.91810514209718'></img></div></div></div><div id='rectangle'></div>",NA,"html-keyboard-response",83,101722,"0.0-6.0-0.9","74",4,"koba","trial","small",1,"testing",196.918105142097,"awix_ffgv_zuwr",10,2,6.12029741892281
"144",494.825000001583,"<div class='displayed'><div style='width: 700px;'><div style='float: center;'><img src='stim-images/object13bluebig.jpg' width='413.4281340242647' height='413.4281340242647'></img></div></div></div><div id='rectangle'></div>",NA,"html-keyboard-response",85,103226,"0.0-6.0-0.10","70",13,"blicket","trial","big",1,"testing",413.428134024265,"awix_ffgv_zuwr",10,7,6.20420416471
"145",487.71499999566,"<div class='displayed'><div style='width: 700px;'><div style='float: center;'><img src='stim-images/object4bluebig.jpg' width='252.73587677294174' height='252.73587677294174'></img></div></div></div><div id='rectangle'></div>",NA,"html-keyboard-response",87,104723,"0.0-6.0-0.11","74",4,"koba","trial","small",1,"testing",252.735876772942,"awix_ffgv_zuwr",10,3,6.1897312188468
"146",480.680000007851,"<div class='displayed'><div style='width: 700px;'><div style='float: center;'><img src='stim-images/object13bluebig.jpg' width='305.0414421534159' height='305.0414421534159'></img></div></div></div><div id='rectangle'></div>",NA,"html-keyboard-response",89,106210,"0.0-6.0-0.12","70",13,"blicket","trial","big",1,"testing",305.041442153416,"awix_ffgv_zuwr",11,5,6.17520176805943
"147",355.179999998654,"<div class='displayed'><div style='width: 700px;'><div style='float: center;'><img src='stim-images/object13bluebig.jpg' width='350.1111902397357' height='350.1111902397357'></img></div></div></div><div id='rectangle'></div>",NA,"html-keyboard-response",91,107571,"0.0-6.0-0.13","70",13,"blicket","trial","big",1,"testing",350.111190239736,"awix_ffgv_zuwr",11,6,5.87262470322266
"148",472.219999996014,"<div class='displayed'><div style='width: 700px;'><div style='float: center;'><img src='stim-images/object13bluebig.jpg' width='423.75258627713725' height='423.75258627713725'></img></div></div></div><div id='rectangle'></div>",NA,"html-keyboard-response",93,109051,"0.0-6.0-0.14","70",13,"blicket","trial","big",1,"testing",423.752586277137,"awix_ffgv_zuwr",11,8,6.15744497868038
"149",463.745000000927,"<div class='displayed'><div style='width: 700px;'><div style='float: center;'><img src='stim-images/object4bluebig.jpg' width='246.5102563322115' height='246.5102563322115'></img></div></div></div><div id='rectangle'></div>",NA,"html-keyboard-response",95,110523,"0.0-6.0-0.15","74",4,"koba","trial","small",1,"testing",246.510256332211,"awix_ffgv_zuwr",11,3,6.13933483219436
"150",470.029999996768,"<div class='displayed'><div style='width: 700px;'><div style='float: center;'><img src='stim-images/object13bluebig.jpg' width='458.92412320736' height='458.92412320736'></img></div></div></div><div id='rectangle'></div>",NA,"html-keyboard-response",97,112002,"0.0-6.0-0.16","70",13,"blicket","trial","big",1,"testing",458.92412320736,"awix_ffgv_zuwr",12,8,6.15279652244743
"151",479.995000001509,"<div class='displayed'><div style='width: 700px;'><div style='float: center;'><img src='stim-images/object4bluebig.jpg' width='135.71851120798573' height='135.71851120798573'></img></div></div></div><div id='rectangle'></div>",NA,"html-keyboard-response",99,113491,"0.0-6.0-0.17","74",4,"koba","trial","small",1,"testing",135.718511207986,"awix_ffgv_zuwr",12,0,6.17377568718416
"152",422.32499999227,"<div class='displayed'><div style='width: 700px;'><div style='float: center;'><img src='stim-images/object13bluebig.jpg' width='287.65756576145077' height='287.65756576145077'></img></div></div></div><div id='rectangle'></div>",NA,"html-keyboard-response",101,114922,"0.0-6.0-0.18","70",13,"blicket","trial","big",1,"testing",287.657565761451,"awix_ffgv_zuwr",12,4,6.04577515979049
"153",473.165000003064,"<div class='displayed'><div style='width: 700px;'><div style='float: center;'><img src='stim-images/object4bluebig.jpg' width='277.62914815350496' height='277.62914815350496'></img></div></div></div><div id='rectangle'></div>",NA,"html-keyboard-response",103,116402,"0.0-6.0-0.19","74",4,"koba","trial","small",1,"testing",277.629148153505,"awix_ffgv_zuwr",12,4,6.15944416487816
"154",2060.99999998696,"<audio src='stimsounds/boti.mp3', autoplay='true'></audio><div class='displayed'><div style='width: 700px;'><div style='float: center;'><div id='rectangle'></div><img src='stim-images/object11bluebig.jpg' width='100.96387715281244' height='100.96387715281244'></img></div></div></div>",NA,"html-keyboard-response",6,99888,"0.0-4.0-0.1","74",11,"boti","trial","small",1,"training",100.963877152812,"bdhq_sxor_osnt",0,0,7.63094658088413
"155",1093.0000001099,"<audio src='stimsounds/boti.mp3', autoplay='true'></audio><div class='displayed'><div style='width: 700px;'><div style='float: center;'><div id='rectangle'></div><img src='stim-images/object11bluebig.jpg' width='237.25536192829875' height='237.25536192829875'></img></div></div></div>",NA,"html-keyboard-response",8,102247,"0.0-4.0-0.2","70",11,"boti","trial","small",0,"training",237.255361928299,"bdhq_sxor_osnt",1,3,6.99668148827708
"156",1290.99999996834,"<audio src='stimsounds/boti.mp3', autoplay='true'></audio><div class='displayed'><div style='width: 700px;'><div style='float: center;'><div id='rectangle'></div><img src='stim-images/object11bluebig.jpg' width='242.50950740862567' height='242.50950740862567'></img></div></div></div>",NA,"html-keyboard-response",10,104835,"0.0-4.0-0.3","70",11,"boti","trial","small",0,"training",242.509507408626,"bdhq_sxor_osnt",1,3,7.16317239082212
"157",1251.00000016391,"<audio src='stimsounds/blicket.mp3', autoplay='true'></audio><div class='displayed'><div style='width: 700px;'><div style='float: center;'><div id='rectangle'></div><img src='stim-images/object18bluebig.jpg' width='419.26277872477255' height='419.26277872477255'></img></div></div></div>",NA,"html-keyboard-response",12,107364,"0.0-4.0-0.4","74",18,"blicket","trial","big",0,"training",419.262778724773,"bdhq_sxor_osnt",1,7,7.13169851059794
"158",1018.99999985471,"<audio src='stimsounds/blicket.mp3', autoplay='true'></audio><div class='displayed'><div style='width: 700px;'><div style='float: center;'><div id='rectangle'></div><img src='stim-images/object18bluebig.jpg' width='371.45530234102273' height='371.45530234102273'></img></div></div></div>",NA,"html-keyboard-response",14,109643,"0.0-4.0-0.5","74",18,"blicket","trial","big",0,"training",371.455302341023,"bdhq_sxor_osnt",1,6,6.92657703308015
"159",1418.00000006333,"<audio src='stimsounds/boti.mp3', autoplay='true'></audio><div class='displayed'><div style='width: 700px;'><div style='float: center;'><div id='rectangle'></div><img src='stim-images/object11bluebig.jpg' width='257.9803001772098' height='257.9803001772098'></img></div></div></div>",NA,"html-keyboard-response",16,112328,"0.0-4.0-0.6","74",11,"boti","trial","small",1,"training",257.98030017721,"bdhq_sxor_osnt",2,3,7.25700270713673
"160",1214.99999985099,"<audio src='stimsounds/boti.mp3', autoplay='true'></audio><div class='displayed'><div style='width: 700px;'><div style='float: center;'><div id='rectangle'></div><img src='stim-images/object11bluebig.jpg' width='160.2659279530596' height='160.2659279530596'></img></div></div></div>",NA,"html-keyboard-response",18,114864,"0.0-4.0-0.7","70",11,"boti","trial","small",0,"training",160.26592795306,"bdhq_sxor_osnt",2,1,7.10249935565201
"161",1702.99999997951,"<audio src='stimsounds/boti.mp3', autoplay='true'></audio><div class='displayed'><div style='width: 700px;'><div style='float: center;'><div id='rectangle'></div><img src='stim-images/object11bluebig.jpg' width='235.39447970530725' height='235.39447970530725'></img></div></div></div>",NA,"html-keyboard-response",20,117833,"0.0-4.0-0.8","74",11,"boti","trial","small",1,"training",235.394479705307,"bdhq_sxor_osnt",2,3,7.44014668065066
"162",736.99999996461,"<audio src='stimsounds/boti.mp3', autoplay='true'></audio><div class='displayed'><div style='width: 700px;'><div style='float: center;'><div id='rectangle'></div><img src='stim-images/object11bluebig.jpg' width='146.05494216198056' height='146.05494216198056'></img></div></div></div>",NA,"html-keyboard-response",22,119836,"0.0-4.0-0.9","70",11,"boti","trial","small",0,"training",146.054942161981,"bdhq_sxor_osnt",2,1,6.60258789214132
"163",1043.00000006333,"<audio src='stimsounds/blicket.mp3', autoplay='true'></audio><div class='displayed'><div style='width: 700px;'><div style='float: center;'><div id='rectangle'></div><img src='stim-images/object18bluebig.jpg' width='378.8235064048976' height='378.8235064048976'></img></div></div></div>",NA,"html-keyboard-response",24,122152,"0.0-4.0-0.10","74",18,"blicket","trial","big",0,"training",378.823506404898,"bdhq_sxor_osnt",3,6,6.94985645506149
"164",1081.00000000559,"<audio src='stimsounds/boti.mp3', autoplay='true'></audio><div class='displayed'><div style='width: 700px;'><div style='float: center;'><div id='rectangle'></div><img src='stim-images/object11bluebig.jpg' width='203.11512448746413' height='203.11512448746413'></img></div></div></div>",NA,"html-keyboard-response",26,124511,"0.0-4.0-0.11","70",11,"boti","trial","small",0,"training",203.115124487464,"bdhq_sxor_osnt",3,2,6.98564181764438
"165",931.00000009872,"<audio src='stimsounds/blicket.mp3', autoplay='true'></audio><div class='displayed'><div style='width: 700px;'><div style='float: center;'><div id='rectangle'></div><img src='stim-images/object18bluebig.jpg' width='404.39832160374175' height='404.39832160374175'></img></div></div></div>",NA,"html-keyboard-response",28,126706,"0.0-4.0-0.12","74",18,"blicket","trial","big",0,"training",404.398321603742,"bdhq_sxor_osnt",3,7,6.8362592773831
"166",949.999999953434,"<audio src='stimsounds/blicket.mp3', autoplay='true'></audio><div class='displayed'><div style='width: 700px;'><div style='float: center;'><div id='rectangle'></div><img src='stim-images/object18bluebig.jpg' width='333.0741404224477' height='333.0741404224477'></img></div></div></div>",NA,"html-keyboard-response",30,128921,"0.0-4.0-0.13","74",18,"blicket","trial","big",0,"training",333.074140422448,"bdhq_sxor_osnt",3,5,6.85646198454557
"167",1263.99999996647,"<audio src='stimsounds/boti.mp3', autoplay='true'></audio><div class='displayed'><div style='width: 700px;'><div style='float: center;'><div id='rectangle'></div><img src='stim-images/object11bluebig.jpg' width='232.36020343533235' height='232.36020343533235'></img></div></div></div>",NA,"html-keyboard-response",32,131447,"0.0-4.0-0.14","74",11,"boti","trial","small",1,"training",232.360203435332,"bdhq_sxor_osnt",4,3,7.14203657468028
"168",959.999999962747,"<audio src='stimsounds/blicket.mp3', autoplay='true'></audio><div class='displayed'><div style='width: 700px;'><div style='float: center;'><div id='rectangle'></div><img src='stim-images/object18bluebig.jpg' width='321.6604436588705' height='321.6604436588705'></img></div></div></div>",NA,"html-keyboard-response",34,133671,"0.0-4.0-0.15","74",18,"blicket","trial","big",0,"training",321.660443658871,"bdhq_sxor_osnt",4,5,6.86693328442308
"169",1131.99999998324,"<audio src='stimsounds/boti.mp3', autoplay='true'></audio><div class='displayed'><div style='width: 700px;'><div style='float: center;'><div id='rectangle'></div><img src='stim-images/object11bluebig.jpg' width='188.16181341886744' height='188.16181341886744'></img></div></div></div>",NA,"html-keyboard-response",36,136070,"0.0-4.0-0.16","74",11,"boti","trial","small",1,"training",188.161813418867,"bdhq_sxor_osnt",4,2,7.03174125874832
"170",989.999999990687,"<audio src='stimsounds/boti.mp3', autoplay='true'></audio><div class='displayed'><div style='width: 700px;'><div style='float: center;'><div id='rectangle'></div><img src='stim-images/object11bluebig.jpg' width='169.4743083473633' height='169.4743083473633'></img></div></div></div>",NA,"html-keyboard-response",38,138329,"0.0-4.0-0.17","70",11,"boti","trial","small",0,"training",169.474308347363,"bdhq_sxor_osnt",4,1,6.89770494311923
"171",1005.00000012107,"<audio src='stimsounds/boti.mp3', autoplay='true'></audio><div class='displayed'><div style='width: 700px;'><div style='float: center;'><div id='rectangle'></div><img src='stim-images/object11bluebig.jpg' width='187.39299302234028' height='187.39299302234028'></img></div></div></div>",NA,"html-keyboard-response",40,140597,"0.0-4.0-0.18","70",11,"boti","trial","small",0,"training",187.39299302234,"bdhq_sxor_osnt",5,2,6.91274282061365
"172",744.999999878928,"<audio src='stimsounds/blicket.mp3', autoplay='true'></audio><div class='displayed'><div style='width: 700px;'><div style='float: center;'><div id='rectangle'></div><img src='stim-images/object18bluebig.jpg' width='306.1717718526869' height='306.1717718526869'></img></div></div></div>",NA,"html-keyboard-response",42,142606,"0.0-4.0-0.19","74",18,"blicket","trial","big",0,"training",306.171771852687,"bdhq_sxor_osnt",5,5,6.61338421821705
"173",846.000000135973,"<audio src='stimsounds/blicket.mp3', autoplay='true'></audio><div class='displayed'><div style='width: 700px;'><div style='float: center;'><div id='rectangle'></div><img src='stim-images/object18bluebig.jpg' width='367.8014563843749' height='367.8014563843749'></img></div></div></div>",NA,"html-keyboard-response",44,144713,"0.0-4.0-0.20","74",18,"blicket","trial","big",0,"training",367.801456384375,"bdhq_sxor_osnt",5,6,6.74051935976695
"174",1094.00000004098,"<audio src='stimsounds/boti.mp3', autoplay='true'></audio><div class='displayed'><div style='width: 700px;'><div style='float: center;'><div id='rectangle'></div><img src='stim-images/object11bluebig.jpg' width='175.1827101066417' height='175.1827101066417'></img></div></div></div>",NA,"html-keyboard-response",46,147079,"0.0-4.0-0.21","70",11,"boti","trial","small",0,"training",175.182710106642,"bdhq_sxor_osnt",5,1,6.99759598301938
"175",786.000000080094,"<audio src='stimsounds/blicket.mp3', autoplay='true'></audio><div class='displayed'><div style='width: 700px;'><div style='float: center;'><div id='rectangle'></div><img src='stim-images/object18bluebig.jpg' width='408.1539162911605' height='408.1539162911605'></img></div></div></div>",NA,"html-keyboard-response",48,149129,"0.0-4.0-0.22","70",18,"blicket","trial","big",1,"training",408.15391629116,"bdhq_sxor_osnt",6,7,6.66695679253111
"176",941.000000108033,"<audio src='stimsounds/blicket.mp3', autoplay='true'></audio><div class='displayed'><div style='width: 700px;'><div style='float: center;'><div id='rectangle'></div><img src='stim-images/object18bluebig.jpg' width='436.56424456752205' height='436.56424456752205'></img></div></div></div>",NA,"html-keyboard-response",50,151336,"0.0-4.0-0.23","74",18,"blicket","trial","big",0,"training",436.564244567522,"bdhq_sxor_osnt",6,8,6.84694313970019
"177",2077.99999997951,"<audio src='stimsounds/blicket.mp3', autoplay='true'></audio><div class='displayed'><div style='width: 700px;'><div style='float: center;'><div id='rectangle'></div><img src='stim-images/object18bluebig.jpg' width='321.81590907519643' height='321.81590907519643'></img></div></div></div>",NA,"html-keyboard-response",52,154688,"0.0-4.0-0.24","74",18,"blicket","trial","big",0,"training",321.815909075196,"bdhq_sxor_osnt",6,5,7.63916117164931
"178",902.999999932945,"<audio src='stimsounds/blicket.mp3', autoplay='true'></audio><div class='displayed'><div style='width: 700px;'><div style='float: center;'><div id='rectangle'></div><img src='stim-images/object18bluebig.jpg' width='326.3276354177418' height='326.3276354177418'></img></div></div></div>",NA,"html-keyboard-response",56,161926,"0.0-4.0-0.26","74",18,"blicket","trial","big",0,"training",326.327635417742,"bdhq_sxor_osnt",7,5,6.80572255334273
"179",968.000000109896,"<audio src='stimsounds/blicket.mp3', autoplay='true'></audio><div class='displayed'><div style='width: 700px;'><div style='float: center;'><div id='rectangle'></div><img src='stim-images/object18bluebig.jpg' width='293.93710207462' height='293.93710207462'></img></div></div></div>",NA,"html-keyboard-response",58,164156,"0.0-4.0-0.27","74",18,"blicket","trial","big",0,"training",293.93710207462,"bdhq_sxor_osnt",7,4,6.87523208739011
"180",1013.00000003539,"<audio src='stimsounds/blicket.mp3', autoplay='true'></audio><div class='displayed'><div style='width: 700px;'><div style='float: center;'><div id='rectangle'></div><img src='stim-images/object18bluebig.jpg' width='393.0863854510456' height='393.0863854510456'></img></div></div></div>",NA,"html-keyboard-response",60,166437,"0.0-4.0-0.28","74",18,"blicket","trial","big",0,"training",393.086385451046,"bdhq_sxor_osnt",7,7,6.92067150428362
"181",1209.99999996275,"<audio src='stimsounds/boti.mp3', autoplay='true'></audio><div class='displayed'><div style='width: 700px;'><div style='float: center;'><div id='rectangle'></div><img src='stim-images/object11bluebig.jpg' width='209.47665432308432' height='209.47665432308432'></img></div></div></div>",NA,"html-keyboard-response",62,168918,"0.0-4.0-0.29","70",11,"boti","trial","small",0,"training",209.476654323084,"bdhq_sxor_osnt",7,2,7.09837563856
"182",2437.99999984913,"<div class='displayed'><div style='width: 700px;'><div style='float: center;'><img src='stim-images/object18bluebig.jpg' width='303.1647548601261' height='303.1647548601261'></img></div></div></div><div id='rectangle'></div>",NA,"html-keyboard-response",65,178286,"0.0-6.0-0.0","74",18,"blicket","trial","big",0,"testing",303.164754860126,"bdhq_sxor_osnt",8,5,7.79893330997933
"183",1150.0000001397,"<div class='displayed'><div style='width: 700px;'><div style='float: center;'><img src='stim-images/object11bluebig.jpg' width='286.9964987490955' height='286.9964987490955'></img></div></div></div><div id='rectangle'></div>",NA,"html-keyboard-response",67,180445,"0.0-6.0-0.1","70",11,"boti","trial","small",0,"testing",286.996498749096,"bdhq_sxor_osnt",8,4,7.04751722147877
"184",978.999999817461,"<div class='displayed'><div style='width: 700px;'><div style='float: center;'><img src='stim-images/object18bluebig.jpg' width='431.73616698162937' height='431.73616698162937'></img></div></div></div><div id='rectangle'></div>",NA,"html-keyboard-response",69,182465,"0.0-6.0-0.2","74",18,"blicket","trial","big",0,"testing",431.736166981629,"bdhq_sxor_osnt",8,8,6.88653164234406
"185",1052.99999983981,"<div class='displayed'><div style='width: 700px;'><div style='float: center;'><img src='stim-images/object11bluebig.jpg' width='101.36871361315949' height='101.36871361315949'></img></div></div></div><div id='rectangle'></div>",NA,"html-keyboard-response",71,184529,"0.0-6.0-0.3","70",11,"boti","trial","small",0,"testing",101.368713613159,"bdhq_sxor_osnt",8,0,6.95939851198185
"186",854.000000050291,"<div class='displayed'><div style='width: 700px;'><div style='float: center;'><img src='stim-images/object18bluebig.jpg' width='279.529234580659' height='279.529234580659'></img></div></div></div><div id='rectangle'></div>",NA,"html-keyboard-response",73,186393,"0.0-6.0-0.4","74",18,"blicket","trial","big",0,"testing",279.529234580659,"bdhq_sxor_osnt",9,4,6.74993119384746
"187",1043.00000006333,"<div class='displayed'><div style='width: 700px;'><div style='float: center;'><img src='stim-images/object11bluebig.jpg' width='268.60421557178626' height='268.60421557178626'></img></div></div></div><div id='rectangle'></div>",NA,"html-keyboard-response",75,188451,"0.0-6.0-0.5","70",11,"boti","trial","small",0,"testing",268.604215571786,"bdhq_sxor_osnt",9,4,6.94985645506149
"188",787.000000011176,"<div class='displayed'><div style='width: 700px;'><div style='float: center;'><img src='stim-images/object18bluebig.jpg' width='327.1552768923449' height='327.1552768923449'></img></div></div></div><div id='rectangle'></div>",NA,"html-keyboard-response",77,190247,"0.0-6.0-0.6","74",18,"blicket","trial","big",0,"testing",327.155276892345,"bdhq_sxor_osnt",9,5,6.6682282484316
"189",1191.00000010803,"<div class='displayed'><div style='width: 700px;'><div style='float: center;'><img src='stim-images/object11bluebig.jpg' width='258.36385553151547' height='258.36385553151547'></img></div></div></div><div id='rectangle'></div>",NA,"html-keyboard-response",79,192452,"0.0-6.0-0.7","70",11,"boti","trial","small",0,"testing",258.363855531515,"bdhq_sxor_osnt",9,3,7.08254856944601
"190",1041.99999989942,"<div class='displayed'><div style='width: 700px;'><div style='float: center;'><img src='stim-images/object18bluebig.jpg' width='275.56814902794383' height='275.56814902794383'></img></div></div></div><div id='rectangle'></div>",NA,"html-keyboard-response",81,194592,"0.0-6.0-0.8","74",18,"blicket","trial","big",0,"testing",275.568149027944,"bdhq_sxor_osnt",10,4,6.94889722221678
"191",1074.00000002235,"<div class='displayed'><div style='width: 700px;'><div style='float: center;'><img src='stim-images/object18bluebig.jpg' width='413.2328065921129' height='413.2328065921129'></img></div></div></div><div id='rectangle'></div>",NA,"html-keyboard-response",83,196673,"0.0-6.0-0.9","74",18,"blicket","trial","big",0,"testing",413.232806592113,"bdhq_sxor_osnt",10,7,6.97914527508962
"192",1005.00000012107,"<div class='displayed'><div style='width: 700px;'><div style='float: center;'><img src='stim-images/object18bluebig.jpg' width='412.2033415402151' height='412.2033415402151'></img></div></div></div><div id='rectangle'></div>",NA,"html-keyboard-response",85,198684,"0.0-6.0-0.10","70",18,"blicket","trial","big",1,"testing",412.203341540215,"bdhq_sxor_osnt",10,7,6.91274282061365
"193",718.000000109896,"<div class='displayed'><div style='width: 700px;'><div style='float: center;'><img src='stim-images/object11bluebig.jpg' width='237.79091236339127' height='237.79091236339127'></img></div></div></div><div id='rectangle'></div>",NA,"html-keyboard-response",87,200407,"0.0-6.0-0.11","74",11,"boti","trial","small",1,"testing",237.790912363391,"bdhq_sxor_osnt",10,3,6.57646956920128
"194",819.00000013411,"<div class='displayed'><div style='width: 700px;'><div style='float: center;'><img src='stim-images/object11bluebig.jpg' width='154.18973863804234' height='154.18973863804234'></img></div></div></div><div id='rectangle'></div>",NA,"html-keyboard-response",89,202345,"0.0-6.0-0.12","70",11,"boti","trial","small",0,"testing",154.189738638042,"bdhq_sxor_osnt",11,1,6.70808408401682
"195",692.999999970198,"<div class='displayed'><div style='width: 700px;'><div style='float: center;'><img src='stim-images/object11bluebig.jpg' width='175.99713711496636' height='175.99713711496636'></img></div></div></div><div id='rectangle'></div>",NA,"html-keyboard-response",91,204048,"0.0-6.0-0.13","74",11,"boti","trial","small",1,"testing",175.997137114966,"bdhq_sxor_osnt",11,1,6.5410299991469
"196",837.999999988824,"<div class='displayed'><div style='width: 700px;'><div style='float: center;'><img src='stim-images/object18bluebig.jpg' width='427.867054213211' height='427.867054213211'></img></div></div></div><div id='rectangle'></div>",NA,"html-keyboard-response",93,205900,"0.0-6.0-0.14","70",18,"blicket","trial","big",1,"testing",427.867054213211,"bdhq_sxor_osnt",11,8,6.73101810046875
"197",695.999999996275,"<div class='displayed'><div style='width: 700px;'><div style='float: center;'><img src='stim-images/object11bluebig.jpg' width='135.0059711540602' height='135.0059711540602'></img></div></div></div><div id='rectangle'></div>",NA,"html-keyboard-response",95,207607,"0.0-6.0-0.15","74",11,"boti","trial","small",1,"testing",135.00597115406,"bdhq_sxor_osnt",11,0,6.54534966032907
"198",730.999999912456,"<div class='displayed'><div style='width: 700px;'><div style='float: center;'><img src='stim-images/object11bluebig.jpg' width='184.7631424339394' height='184.7631424339394'></img></div></div></div><div id='rectangle'></div>",NA,"html-keyboard-response",97,209346,"0.0-6.0-0.16","70",11,"boti","trial","small",0,"testing",184.763142433939,"bdhq_sxor_osnt",12,2,6.59441345963002
"199",787.999999942258,"<div class='displayed'><div style='width: 700px;'><div style='float: center;'><img src='stim-images/object11bluebig.jpg' width='211.25448463762137' height='211.25448463762137'></img></div></div></div><div id='rectangle'></div>",NA,"html-keyboard-response",99,211143,"0.0-6.0-0.17","74",11,"boti","trial","small",1,"testing",211.254484637621,"bdhq_sxor_osnt",12,2,6.6694980897846
"200",759.000000078231,"<div class='displayed'><div style='width: 700px;'><div style='float: center;'><img src='stim-images/object18bluebig.jpg' width='353.7599313700622' height='353.7599313700622'></img></div></div></div><div id='rectangle'></div>",NA,"html-keyboard-response",101,212926,"0.0-6.0-0.18","70",18,"blicket","trial","big",1,"testing",353.759931370062,"bdhq_sxor_osnt",12,6,6.6320017774987
"201",747.999999905005,"<div class='displayed'><div style='width: 700px;'><div style='float: center;'><img src='stim-images/object18bluebig.jpg' width='369.1550191175066' height='369.1550191175066'></img></div></div></div><div id='rectangle'></div>",NA,"html-keyboard-response",103,214682,"0.0-6.0-0.19","74",18,"blicket","trial","big",0,"testing",369.155019117507,"bdhq_sxor_osnt",12,6,6.61740297784748
"202",2282.99999999581,"<audio src='stimsounds/flib.mp3', autoplay='true'></audio><div class='displayed'><div style='width: 700px;'><div style='float: center;'><div id='rectangle'></div><img src='stim-images/object19bluebig.jpg' width='333.117721908712' height='333.117721908712'></img></div></div></div>",NA,"html-keyboard-response",6,142821,"0.0-4.0-0.1","70",19,"flib","trial","big",1,"training",333.117721908712,"bpex_malc_fmbd",0,5,7.73324564652796
"203",1973.99999998743,"<audio src='stimsounds/flib.mp3', autoplay='true'></audio><div class='displayed'><div style='width: 700px;'><div style='float: center;'><div id='rectangle'></div><img src='stim-images/object19bluebig.jpg' width='348.61081917397087' height='348.61081917397087'></img></div></div></div>",NA,"html-keyboard-response",10,152241,"0.0-4.0-0.3","70",19,"flib","trial","big",1,"training",348.610819173971,"bpex_malc_fmbd",1,6,7.58781721998706
"204",1466.0000000149,"<audio src='stimsounds/zorp.mp3', autoplay='true'></audio><div class='displayed'><div style='width: 700px;'><div style='float: center;'><div id='rectangle'></div><img src='stim-images/object13bluebig.jpg' width='222.83231021823997' height='222.83231021823997'></img></div></div></div>",NA,"html-keyboard-response",12,154960,"0.0-4.0-0.4","70",13,"zorp","trial","small",0,"training",222.83231021824,"bpex_malc_fmbd",1,3,7.29029288245676
"205",1387.99999997718,"<audio src='stimsounds/flib.mp3', autoplay='true'></audio><div class='displayed'><div style='width: 700px;'><div style='float: center;'><div id='rectangle'></div><img src='stim-images/object19bluebig.jpg' width='338.4548206853548' height='338.4548206853548'></img></div></div></div>",NA,"html-keyboard-response",14,157612,"0.0-4.0-0.5","70",19,"flib","trial","big",1,"training",338.454820685355,"bpex_malc_fmbd",1,5,7.23561914105031
"206",1297.00000002049,"<audio src='stimsounds/flib.mp3', autoplay='true'></audio><div class='displayed'><div style='width: 700px;'><div style='float: center;'><div id='rectangle'></div><img src='stim-images/object19bluebig.jpg' width='360.3372507292757' height='360.3372507292757'></img></div></div></div>",NA,"html-keyboard-response",16,160164,"0.0-4.0-0.6","70",19,"flib","trial","big",1,"training",360.337250729276,"bpex_malc_fmbd",2,6,7.16780918433224
"207",1047.00000002049,"<audio src='stimsounds/zorp.mp3', autoplay='true'></audio><div class='displayed'><div style='width: 700px;'><div style='float: center;'><div id='rectangle'></div><img src='stim-images/object13bluebig.jpg' width='128.98925503912832' height='128.98925503912832'></img></div></div></div>",NA,"html-keyboard-response",18,162473,"0.0-4.0-0.7","74",13,"zorp","trial","small",1,"training",128.989255039128,"bpex_malc_fmbd",2,0,6.95368421089011
"208",1082.99999998417,"<audio src='stimsounds/flib.mp3', autoplay='true'></audio><div class='displayed'><div style='width: 700px;'><div style='float: center;'><div id='rectangle'></div><img src='stim-images/object19bluebig.jpg' width='362.66657184891926' height='362.66657184891926'></img></div></div></div>",NA,"html-keyboard-response",20,164814,"0.0-4.0-0.8","70",19,"flib","trial","big",1,"training",362.666571848919,"bpex_malc_fmbd",2,6,6.98749024698637
"209",1355.00000003958,"<audio src='stimsounds/flib.mp3', autoplay='true'></audio><div class='displayed'><div style='width: 700px;'><div style='float: center;'><div id='rectangle'></div><img src='stim-images/object19bluebig.jpg' width='315.8290958716021' height='315.8290958716021'></img></div></div></div>",NA,"html-keyboard-response",22,167434,"0.0-4.0-0.9","70",19,"flib","trial","big",1,"training",315.829095871602,"bpex_malc_fmbd",2,5,7.21155673334301
"210",1027.99999999115,"<audio src='stimsounds/flib.mp3', autoplay='true'></audio><div class='displayed'><div style='width: 700px;'><div style='float: center;'><div id='rectangle'></div><img src='stim-images/object19bluebig.jpg' width='337.383984272935' height='337.383984272935'></img></div></div></div>",NA,"html-keyboard-response",24,169733,"0.0-4.0-0.10","70",19,"flib","trial","big",1,"training",337.383984272935,"bpex_malc_fmbd",3,5,6.9353704460065
"211",1649.00000003399,"<audio src='stimsounds/zorp.mp3', autoplay='true'></audio><div class='displayed'><div style='width: 700px;'><div style='float: center;'><div id='rectangle'></div><img src='stim-images/object13bluebig.jpg' width='245.4871309854748' height='245.4871309854748'></img></div></div></div>",NA,"html-keyboard-response",26,172641,"0.0-4.0-0.11","74",13,"zorp","trial","small",1,"training",245.487130985475,"bpex_malc_fmbd",3,3,7.40792432258021
"212",1260.00000000931,"<audio src='stimsounds/zorp.mp3', autoplay='true'></audio><div class='displayed'><div style='width: 700px;'><div style='float: center;'><div id='rectangle'></div><img src='stim-images/object13bluebig.jpg' width='217.04593587208797' height='217.04593587208797'></img></div></div></div>",NA,"html-keyboard-response",28,175168,"0.0-4.0-0.12","74",13,"zorp","trial","small",1,"training",217.045935872088,"bpex_malc_fmbd",3,2,7.13886699995292
"213",904.999999969732,"<audio src='stimsounds/zorp.mp3', autoplay='true'></audio><div class='displayed'><div style='width: 700px;'><div style='float: center;'><div id='rectangle'></div><img src='stim-images/object13bluebig.jpg' width='180.51800603822642' height='180.51800603822642'></img></div></div></div>",NA,"html-keyboard-response",30,177336,"0.0-4.0-0.13","74",13,"zorp","trial","small",1,"training",180.518006038226,"bpex_malc_fmbd",3,2,6.80793494366648
"214",689.000000013039,"<audio src='stimsounds/zorp.mp3', autoplay='true'></audio><div class='displayed'><div style='width: 700px;'><div style='float: center;'><div id='rectangle'></div><img src='stim-images/object13bluebig.jpg' width='215.84453965209894' height='215.84453965209894'></img></div></div></div>",NA,"html-keyboard-response",32,179287,"0.0-4.0-0.14","74",13,"zorp","trial","small",1,"training",215.844539652099,"bpex_malc_fmbd",4,2,6.53524127103258
"215",794.999999983702,"<audio src='stimsounds/zorp.mp3', autoplay='true'></audio><div class='displayed'><div style='width: 700px;'><div style='float: center;'><div id='rectangle'></div><img src='stim-images/object13bluebig.jpg' width='151.38620798910898' height='151.38620798910898'></img></div></div></div>",NA,"html-keyboard-response",34,181338,"0.0-4.0-0.15","74",13,"zorp","trial","small",1,"training",151.386207989109,"bpex_malc_fmbd",4,1,6.67834211463383
"216",730.999999970663,"<audio src='stimsounds/flib.mp3', autoplay='true'></audio><div class='displayed'><div style='width: 700px;'><div style='float: center;'><div id='rectangle'></div><img src='stim-images/object19bluebig.jpg' width='335.65899078094435' height='335.65899078094435'></img></div></div></div>",NA,"html-keyboard-response",36,183339,"0.0-4.0-0.16","74",19,"flib","trial","big",0,"training",335.658990780944,"bpex_malc_fmbd",4,5,6.59441345970965
"217",867.000000027474,"<audio src='stimsounds/flib.mp3', autoplay='true'></audio><div class='displayed'><div style='width: 700px;'><div style='float: center;'><div id='rectangle'></div><img src='stim-images/object19bluebig.jpg' width='378.7574754035144' height='378.7574754035144'></img></div></div></div>",NA,"html-keyboard-response",38,185505,"0.0-4.0-0.17","70",19,"flib","trial","big",1,"training",378.757475403514,"bpex_malc_fmbd",4,6,6.76503897681223
"218",869.000000006054,"<audio src='stimsounds/flib.mp3', autoplay='true'></audio><div class='displayed'><div style='width: 700px;'><div style='float: center;'><div id='rectangle'></div><img src='stim-images/object19bluebig.jpg' width='348.98636728572893' height='348.98636728572893'></img></div></div></div>",NA,"html-keyboard-response",40,187670,"0.0-4.0-0.18","70",19,"flib","trial","big",1,"training",348.986367285729,"bpex_malc_fmbd",5,6,6.76734312527236
"219",890.00000001397,"<audio src='stimsounds/zorp.mp3', autoplay='true'></audio><div class='displayed'><div style='width: 700px;'><div style='float: center;'><div id='rectangle'></div><img src='stim-images/object13bluebig.jpg' width='268.87296381408737' height='268.87296381408737'></img></div></div></div>",NA,"html-keyboard-response",42,189842,"0.0-4.0-0.19","74",13,"zorp","trial","small",1,"training",268.872963814087,"bpex_malc_fmbd",5,4,6.79122146274188
"220",1140.00000001397,"<audio src='stimsounds/zorp.mp3', autoplay='true'></audio><div class='displayed'><div style='width: 700px;'><div style='float: center;'><div id='rectangle'></div><img src='stim-images/object13bluebig.jpg' width='143.08014891324254' height='143.08014891324254'></img></div></div></div>",NA,"html-keyboard-response",44,192252,"0.0-4.0-0.20","74",13,"zorp","trial","small",1,"training",143.080148913243,"bpex_malc_fmbd",5,1,7.0387835414008
"221",943.000000028405,"<audio src='stimsounds/flib.mp3', autoplay='true'></audio><div class='displayed'><div style='width: 700px;'><div style='float: center;'><div id='rectangle'></div><img src='stim-images/object19bluebig.jpg' width='329.17415312587565' height='329.17415312587565'></img></div></div></div>",NA,"html-keyboard-response",46,194452,"0.0-4.0-0.21","70",19,"flib","trial","big",1,"training",329.174153125876,"bpex_malc_fmbd",5,5,6.84906628266358
"222",940.000000002328,"<audio src='stimsounds/zorp.mp3', autoplay='true'></audio><div class='displayed'><div style='width: 700px;'><div style='float: center;'><div id='rectangle'></div><img src='stim-images/object13bluebig.jpg' width='229.87647100529762' height='229.87647100529762'></img></div></div></div>",NA,"html-keyboard-response",48,196660,"0.0-4.0-0.22","74",13,"zorp","trial","small",1,"training",229.876471005298,"bpex_malc_fmbd",6,3,6.84587987526653
"223",953.000000037719,"<audio src='stimsounds/flib.mp3', autoplay='true'></audio><div class='displayed'><div style='width: 700px;'><div style='float: center;'><div id='rectangle'></div><img src='stim-images/object19bluebig.jpg' width='311.5574144943221' height='311.5574144943221'></img></div></div></div>",NA,"html-keyboard-response",50,198888,"0.0-4.0-0.23","70",19,"flib","trial","big",1,"training",311.557414494322,"bpex_malc_fmbd",6,5,6.85961490369378
"224",896.000000007916,"<audio src='stimsounds/zorp.mp3', autoplay='true'></audio><div class='displayed'><div style='width: 700px;'><div style='float: center;'><div id='rectangle'></div><img src='stim-images/object13bluebig.jpg' width='190.9744231826195' height='190.9744231826195'></img></div></div></div>",NA,"html-keyboard-response",52,201044,"0.0-4.0-0.24","74",13,"zorp","trial","small",1,"training",190.974423182619,"bpex_malc_fmbd",6,2,6.79794041298377
"225",1175.00000004657,"<audio src='stimsounds/zorp.mp3', autoplay='true'></audio><div class='displayed'><div style='width: 700px;'><div style='float: center;'><div id='rectangle'></div><img src='stim-images/object13bluebig.jpg' width='173.60567741277248' height='173.60567741277248'></img></div></div></div>",NA,"html-keyboard-response",54,203477,"0.0-4.0-0.25","74",13,"zorp","trial","small",1,"training",173.605677412772,"bpex_malc_fmbd",6,1,7.06902342661789
"226",1027.00000000186,"<audio src='stimsounds/zorp.mp3', autoplay='true'></audio><div class='displayed'><div style='width: 700px;'><div style='float: center;'><div id='rectangle'></div><img src='stim-images/object13bluebig.jpg' width='173.78695415368998' height='173.78695415368998'></img></div></div></div>",NA,"html-keyboard-response",56,205777,"0.0-4.0-0.26","74",13,"zorp","trial","small",1,"training",173.78695415369,"bpex_malc_fmbd",7,1,6.93439720993037
"227",869.999999995343,"<audio src='stimsounds/flib.mp3', autoplay='true'></audio><div class='displayed'><div style='width: 700px;'><div style='float: center;'><div id='rectangle'></div><img src='stim-images/object19bluebig.jpg' width='302.50660186455883' height='302.50660186455883'></img></div></div></div>",NA,"html-keyboard-response",58,207903,"0.0-4.0-0.27","70",19,"flib","trial","big",1,"training",302.506601864559,"bpex_malc_fmbd",7,5,6.76849321164328
