"","rt","stimulus","button_pressed","trial_type","trial_index","time_elapsed","internal_node_id","key_press","shape","name","trial_name","object","correct","phase","objSize","subid","block","size_bin","log_rt"
"1",10521.5800000587,"<div id='consent'><img src='img/cmu_logo.png' alt='Carnegie Mellon University'><p id='logo-text'><u>Online Consent Form</u></p><small><p class='block-text-wide'>This game is part of a research study conducted by Daniel Yurovsky at Carnegie Mellon University. </p><p class='block-text-wide'><b>Summary</b>  In this game, you be presented a series of inoffensive stimuli designed to measure how people learn and communicate. You will be asked to make responses via mouse and keyboard. There are no foreseeable risks to you in this study, and participation will take no more than 10 minutes. Being in this study is voluntary - it is your choice.</p><p class='block-text-wide'><b>Purpose</b> In this study, we are investigating the development of language and communication.  Our research explores how infants and young children learn new words so quickly from the language spoken around them, as well as how adults learn language.  We are also interested in how adults foster this rapid vocabulary growth.</p><p class='block-text-wide'><b>Procedures</b> We will present you with a variety of stimuli, including natural and artificial language samples, pictures of known or unknown objects, and/or movies of people talking. Sometimes some of the speech you will hear will be from a foreign or made-up language. You will be asked to make judgments about these stimuli using the mouse and keyboard. We expect that this study will take around 5 minutes and can completed online in your browser.</p><p class='block-text-wide'><b>Participant Requirements</b> Participation in this study is limited to individuals age 18 and older who are fluent speakers of English.</p><p class='block-text-wide'><b>Risks</b> The risks and discomfort associated with participation in this study are no greater than those ordinarily encountered in daily life or during other online activities. You may become bored with the game.<p class='block-text-wide'><b>Benefits</b> There may be no personal benefit from your participation in the study but the knowledge received may be of value to humanity.<p class='block-text-wide'><b>Compensation & Costs</b> You will be compensated at the rate at least $6/hour for your participation in this research. This duration is determined by the maximum time allotted for this study, not the amount of time you take to complete it.<br>There will be no cost to you if you participate in this study.</p><p class='block-text-wide'><b>Future Use of Information and/or Bio-Specimens</b> In the future, once we have removed all identifiable information from your data, we may use the data for our future research studies, or we may distribute the data to other investigators for their research studies.  We would do this without getting additional informed consent from you (or your legally authorized representative).  Sharing of data with other researchers will only be done in such a manner that you will not be identified.<p class='block-text-wide'><b>Confidentiality</b> The data captured for the research does not include any personally identifiable information about you beyond your Amazon Mechanical Turk id and IP address.<p class='block-text-wide'><b>Right to Ask Questions & Contact Information</b> If you have any questions about this study, you should feel free to ask them by contacting the Principal Investigator now at: Daniel Yurovsky, Psychology Department, 5000 Forbes Ave, Pittsburgh, PA 15213. Phone: (412) 268-6266 Email: yurovsky@cmu.edu. If you have questions later, desire additional information, or wish to withdraw your participation please contact the Principal Investigator by mail, phone or e-mail in accordance with the contact information listed above.<br>If you have questions pertaining to your rights as a research participant; or to report concerns to this study, you should contact the Office of Research integrity and Compliance at Carnegie Mellon University. Email: irb-review@andrew.cmu.edu. Phone: 412-268-1901 or 412-268-5460. </p><p class='block-text-wide'><b>Voluntary Participation</b> Your participation in this research is voluntary. You may discontinue participation at any time during the research activity. You may print a copy of this consent form for your records.</p><p class='block-text-wide'>I am age 18 or older.<input type='radio' name='age' value='eighteen' onclick=enable('start')> Yes<input type='radio' name='age' value='not_eighteen' onclick=disable('start')> No</p><p class='block-text-wide'>I have read and understand the information above.<input type='radio' name='understand' value='understood' onclick=enable('start')> Yes<input type='radio' name='understand' value='not_understood' onclick=disable('start')> No</p><p class='block-text-wide'>I want to participate in this research and continue with the game.<input type='radio' name='give_consent' value='consent' onclick=enable('start')> Yes<input type='radio' name='give_consent' value='not_consent' onclick=disable('start')> No </p></small></div>",0,"html-button-response",0,10537,"0.0-0.0",NA,NA,NA,NA,NA,NA,NA,NA,"aibq_dark_tgid",0,NA,9.26118366513395
"2",5697.69499998074,"Press the keyboard key of the letter that comes after the letter d in the alphabet.",NA,"html-keyboard-response",1,16236,"0.0-1.0","69",NA,NA,NA,NA,NA,NA,NA,"aibq_dark_tgid",0,NA,8.64781698606829
"3",7718.37999997661,"img/speaker.png",0,"image-button-response",2,23956,"0.0-2.0",NA,NA,NA,NA,NA,NA,NA,NA,"aibq_dark_tgid",0,NA,8.95135977643575
"4",8630.36999991164,"<b>Instructions</b><p>You will see images of two categories of alien fruits, named sprock and boti .</p> <p>They will come out in random order, one at a time.</p><p>For one category, press the ""F"" key, and for the other category, press the ""J"" key. </p><p>You won't know which key corresponds to which fruit at first, but make your best guesses and over time, you will learn.</p><p>Remember, you will use the ""F"" and ""J"" keys to categorize the fruits.</p><p>Press the space bar to begin.</p>",NA,"html-keyboard-response",3,32588,"0.0-3.0","32",NA,NA,NA,NA,NA,NA,NA,"aibq_dark_tgid",0,NA,9.06304265684459
"5",2475.05499992985,"<audio src='stimsounds/sprock.mp3', autoplay='true'></audio><div class='displayed'><div style='width: 700px;'><div style='float: center;'><div id='rectangle'></div><img src='stim-images/object18bluebig.jpg' width='283.26050991441355' height='283.26050991441355'></img></div></div></div>",NA,"html-keyboard-response",4,35066,"0.0-4.0-0.0","70",18,"sprock","trial","big",1,"training",283.260509914414,"aibq_dark_tgid",0,4,7.81401789694976
"6",NA,"<audio src='stimsounds/empty.wav', autoplay='true'></audio><div id='rectangle'></div>",NA,"html-keyboard-response",5,36319,"0.0-4.0-1.0","null",18,"sprock","feedback","big",0,"training",283.260509914414,"aibq_dark_tgid",0,4,NA
"7",712.924999999814,"<audio src='stimsounds/sprock.mp3', autoplay='true'></audio><div class='displayed'><div style='width: 700px;'><div style='float: center;'><div id='rectangle'></div><img src='stim-images/object18bluebig.jpg' width='343.1239071802108' height='343.1239071802108'></img></div></div></div>",NA,"html-keyboard-response",6,37034,"0.0-4.0-0.1","74",18,"sprock","trial","big",0,"training",343.123907180211,"aibq_dark_tgid",0,6,6.56937622554043
"8",NA,"<audio src='stimsounds/buzzer.wav', autoplay='true'></audio><div id='rectangle'></div>",NA,"html-keyboard-response",7,38286,"0.0-4.0-1.1","null",18,"sprock","feedback","big",0,"training",343.123907180211,"aibq_dark_tgid",0,6,NA
"9",717.745000030845,"<audio src='stimsounds/sprock.mp3', autoplay='true'></audio><div class='displayed'><div style='width: 700px;'><div style='float: center;'><div id='rectangle'></div><img src='stim-images/object18bluebig.jpg' width='303.27354779513274' height='303.27354779513274'></img></div></div></div>",NA,"html-keyboard-response",8,39006,"0.0-4.0-0.2","70",18,"sprock","trial","big",1,"training",303.273547795133,"aibq_dark_tgid",1,5,6.57611435280602
"10",NA,"<audio src='stimsounds/empty.wav', autoplay='true'></audio><div id='rectangle'></div>",NA,"html-keyboard-response",9,40258,"0.0-4.0-1.2","null",18,"sprock","feedback","big",0,"training",303.273547795133,"aibq_dark_tgid",1,5,NA
"11",725.440000067465,"<audio src='stimsounds/sprock.mp3', autoplay='true'></audio><div class='displayed'><div style='width: 700px;'><div style='float: center;'><div id='rectangle'></div><img src='stim-images/object18bluebig.jpg' width='295.662383466123' height='295.662383466123'></img></div></div></div>",NA,"html-keyboard-response",10,40986,"0.0-4.0-0.3","70",18,"sprock","trial","big",1,"training",295.662383466123,"aibq_dark_tgid",1,4,6.58677836741216
"12",NA,"<audio src='stimsounds/empty.wav', autoplay='true'></audio><div id='rectangle'></div>",NA,"html-keyboard-response",11,42238,"0.0-4.0-1.3","null",18,"sprock","feedback","big",0,"training",295.662383466123,"aibq_dark_tgid",1,4,NA
"13",1605.82000005525,"<audio src='stimsounds/boti.mp3', autoplay='true'></audio><div class='displayed'><div style='width: 700px;'><div style='float: center;'><div id='rectangle'></div><img src='stim-images/object12bluebig.jpg' width='214.31784821587746' height='214.31784821587746'></img></div></div></div>",NA,"html-keyboard-response",12,43846,"0.0-4.0-0.4","74",12,"boti","trial","small",1,"training",214.317848215877,"aibq_dark_tgid",1,2,7.38138980855859
"14",NA,"<audio src='stimsounds/empty.wav', autoplay='true'></audio><div id='rectangle'></div>",NA,"html-keyboard-response",13,45098,"0.0-4.0-1.4","null",12,"boti","feedback","small",0,"training",214.317848215877,"aibq_dark_tgid",1,2,NA
"15",986.000000033528,"<audio src='stimsounds/boti.mp3', autoplay='true'></audio><div class='displayed'><div style='width: 700px;'><div style='float: center;'><div id='rectangle'></div><img src='stim-images/object12bluebig.jpg' width='245.36628518487666' height='245.36628518487666'></img></div></div></div>",NA,"html-keyboard-response",14,46086,"0.0-4.0-0.5","74",12,"boti","trial","small",1,"training",245.366285184877,"aibq_dark_tgid",1,3,6.89365635463664
"16",NA,"<audio src='stimsounds/empty.wav', autoplay='true'></audio><div id='rectangle'></div>",NA,"html-keyboard-response",15,47338,"0.0-4.0-1.5","null",12,"boti","feedback","small",0,"training",245.366285184877,"aibq_dark_tgid",1,3,NA
"17",806.129999924451,"<audio src='stimsounds/boti.mp3', autoplay='true'></audio><div class='displayed'><div style='width: 700px;'><div style='float: center;'><div id='rectangle'></div><img src='stim-images/object12bluebig.jpg' width='159.8013383032701' height='159.8013383032701'></img></div></div></div>",NA,"html-keyboard-response",16,48146,"0.0-4.0-0.6","74",12,"boti","trial","small",1,"training",159.80133830327,"aibq_dark_tgid",2,1,6.69224501972961
"18",NA,"<audio src='stimsounds/empty.wav', autoplay='true'></audio><div id='rectangle'></div>",NA,"html-keyboard-response",17,49399,"0.0-4.0-1.6","null",12,"boti","feedback","small",0,"training",159.80133830327,"aibq_dark_tgid",2,1,NA
"19",704.6599999303,"<audio src='stimsounds/sprock.mp3', autoplay='true'></audio><div class='displayed'><div style='width: 700px;'><div style='float: center;'><div id='rectangle'></div><img src='stim-images/object18bluebig.jpg' width='362.413879648252' height='362.413879648252'></img></div></div></div>",NA,"html-keyboard-response",18,50105,"0.0-4.0-0.7","70",18,"sprock","trial","big",1,"training",362.413879648252,"aibq_dark_tgid",2,6,6.55771541688047
"20",NA,"<audio src='stimsounds/empty.wav', autoplay='true'></audio><div id='rectangle'></div>",NA,"html-keyboard-response",19,51357,"0.0-4.0-1.7","null",18,"sprock","feedback","big",0,"training",362.413879648252,"aibq_dark_tgid",2,6,NA
"21",1055.87999999989,"<audio src='stimsounds/boti.mp3', autoplay='true'></audio><div class='displayed'><div style='width: 700px;'><div style='float: center;'><div id='rectangle'></div><img src='stim-images/object12bluebig.jpg' width='226.9689482214903' height='226.9689482214903'></img></div></div></div>",NA,"html-keyboard-response",20,52415,"0.0-4.0-0.8","74",12,"boti","trial","small",1,"training",226.96894822149,"aibq_dark_tgid",2,3,6.96212982144536
"22",NA,"<audio src='stimsounds/empty.wav', autoplay='true'></audio><div id='rectangle'></div>",NA,"html-keyboard-response",21,53667,"0.0-4.0-1.8","null",12,"boti","feedback","small",0,"training",226.96894822149,"aibq_dark_tgid",2,3,NA
"23",1037.55999996793,"<audio src='stimsounds/sprock.mp3', autoplay='true'></audio><div class='displayed'><div style='width: 700px;'><div style='float: center;'><div id='rectangle'></div><img src='stim-images/object18bluebig.jpg' width='442.35318111612696' height='442.35318111612696'></img></div></div></div>",NA,"html-keyboard-response",22,54707,"0.0-4.0-0.9","70",18,"sprock","trial","big",1,"training",442.353181116127,"aibq_dark_tgid",2,8,6.94462708172707
"24",NA,"<audio src='stimsounds/empty.wav', autoplay='true'></audio><div id='rectangle'></div>",NA,"html-keyboard-response",23,55959,"0.0-4.0-1.9","null",18,"sprock","feedback","big",0,"training",442.353181116127,"aibq_dark_tgid",2,8,NA
"25",1394.56000004429,"<audio src='stimsounds/sprock.mp3', autoplay='true'></audio><div class='displayed'><div style='width: 700px;'><div style='float: center;'><div id='rectangle'></div><img src='stim-images/object18bluebig.jpg' width='331.19354873535156' height='331.19354873535156'></img></div></div></div>",NA,"html-keyboard-response",24,57357,"0.0-4.0-0.10","70",18,"sprock","trial","big",1,"training",331.193548735352,"aibq_dark_tgid",3,5,7.24033423234796
"26",NA,"<audio src='stimsounds/empty.wav', autoplay='true'></audio><div id='rectangle'></div>",NA,"html-keyboard-response",25,58609,"0.0-4.0-1.10","null",18,"sprock","feedback","big",0,"training",331.193548735352,"aibq_dark_tgid",3,5,NA
"27",1024.65499995742,"<audio src='stimsounds/sprock.mp3', autoplay='true'></audio><div class='displayed'><div style='width: 700px;'><div style='float: center;'><div id='rectangle'></div><img src='stim-images/object18bluebig.jpg' width='377.95552127427624' height='377.95552127427624'></img></div></div></div>",NA,"html-keyboard-response",26,59636,"0.0-4.0-0.11","70",18,"sprock","trial","big",1,"training",377.955521274276,"aibq_dark_tgid",3,6,6.93211124950753
"28",NA,"<audio src='stimsounds/empty.wav', autoplay='true'></audio><div id='rectangle'></div>",NA,"html-keyboard-response",27,60888,"0.0-4.0-1.11","null",18,"sprock","feedback","big",0,"training",377.955521274276,"aibq_dark_tgid",3,6,NA
"29",845.8999999566,"<audio src='stimsounds/boti.mp3', autoplay='true'></audio><div class='displayed'><div style='width: 700px;'><div style='float: center;'><div id='rectangle'></div><img src='stim-images/object12bluebig.jpg' width='186.62731360705828' height='186.62731360705828'></img></div></div></div>",NA,"html-keyboard-response",28,61736,"0.0-4.0-0.12","74",12,"boti","trial","small",1,"training",186.627313607058,"aibq_dark_tgid",3,2,6.74040114925866
"30",NA,"<audio src='stimsounds/empty.wav', autoplay='true'></audio><div id='rectangle'></div>",NA,"html-keyboard-response",29,62989,"0.0-4.0-1.12","null",12,"boti","feedback","small",0,"training",186.627313607058,"aibq_dark_tgid",3,2,NA
"31",795.370000065304,"<audio src='stimsounds/sprock.mp3', autoplay='true'></audio><div class='displayed'><div style='width: 700px;'><div style='float: center;'><div id='rectangle'></div><img src='stim-images/object18bluebig.jpg' width='325.02848304530903' height='325.02848304530903'></img></div></div></div>",NA,"html-keyboard-response",30,63786,"0.0-4.0-0.13","70",18,"sprock","trial","big",1,"training",325.028483045309,"aibq_dark_tgid",3,5,6.67880741527238
"32",NA,"<audio src='stimsounds/empty.wav', autoplay='true'></audio><div id='rectangle'></div>",NA,"html-keyboard-response",31,65038,"0.0-4.0-1.13","null",18,"sprock","feedback","big",0,"training",325.028483045309,"aibq_dark_tgid",3,5,NA
"33",806.615000008605,"<audio src='stimsounds/boti.mp3', autoplay='true'></audio><div class='displayed'><div style='width: 700px;'><div style='float: center;'><div id='rectangle'></div><img src='stim-images/object12bluebig.jpg' width='170.2870217360263' height='170.2870217360263'></img></div></div></div>",NA,"html-keyboard-response",32,65847,"0.0-4.0-0.14","74",12,"boti","trial","small",1,"training",170.287021736026,"aibq_dark_tgid",4,1,6.69284647885525
"34",NA,"<audio src='stimsounds/empty.wav', autoplay='true'></audio><div id='rectangle'></div>",NA,"html-keyboard-response",33,67101,"0.0-4.0-1.14","null",12,"boti","feedback","small",0,"training",170.287021736026,"aibq_dark_tgid",4,1,NA
"35",1123.37499996647,"<audio src='stimsounds/boti.mp3', autoplay='true'></audio><div class='displayed'><div style='width: 700px;'><div style='float: center;'><div id='rectangle'></div><img src='stim-images/object12bluebig.jpg' width='240.54714330989083' height='240.54714330989083'></img></div></div></div>",NA,"html-keyboard-response",34,68226,"0.0-4.0-0.15","74",12,"boti","trial","small",1,"training",240.547143309891,"aibq_dark_tgid",4,3,7.02409282594869
"36",NA,"<audio src='stimsounds/empty.wav', autoplay='true'></audio><div id='rectangle'></div>",NA,"html-keyboard-response",35,69479,"0.0-4.0-1.15","null",12,"boti","feedback","small",0,"training",240.547143309891,"aibq_dark_tgid",4,3,NA
"37",674.754999927245,"<audio src='stimsounds/boti.mp3', autoplay='true'></audio><div class='displayed'><div style='width: 700px;'><div style='float: center;'><div id='rectangle'></div><img src='stim-images/object12bluebig.jpg' width='187.52534683790543' height='187.52534683790543'></img></div></div></div>",NA,"html-keyboard-response",36,70156,"0.0-4.0-0.16","74",12,"boti","trial","small",1,"training",187.525346837905,"aibq_dark_tgid",4,2,6.51434966191474
"38",NA,"<audio src='stimsounds/empty.wav', autoplay='true'></audio><div id='rectangle'></div>",NA,"html-keyboard-response",37,71408,"0.0-4.0-1.16","null",12,"boti","feedback","small",0,"training",187.525346837905,"aibq_dark_tgid",4,2,NA
"39",735.370000009425,"<audio src='stimsounds/boti.mp3', autoplay='true'></audio><div class='displayed'><div style='width: 700px;'><div style='float: center;'><div id='rectangle'></div><img src='stim-images/object12bluebig.jpg' width='189.75526076018846' height='189.75526076018846'></img></div></div></div>",NA,"html-keyboard-response",38,72146,"0.0-4.0-0.17","74",12,"boti","trial","small",1,"training",189.755260760188,"aibq_dark_tgid",4,2,6.60037377392224
"40",NA,"<audio src='stimsounds/empty.wav', autoplay='true'></audio><div id='rectangle'></div>",NA,"html-keyboard-response",39,73398,"0.0-4.0-1.17","null",12,"boti","feedback","small",0,"training",189.755260760188,"aibq_dark_tgid",4,2,NA
"41",785.784999956377,"<audio src='stimsounds/sprock.mp3', autoplay='true'></audio><div class='displayed'><div style='width: 700px;'><div style='float: center;'><div id='rectangle'></div><img src='stim-images/object18bluebig.jpg' width='366.4671569704768' height='366.4671569704768'></img></div></div></div>",NA,"html-keyboard-response",40,74186,"0.0-4.0-0.18","70",18,"sprock","trial","big",1,"training",366.467156970477,"aibq_dark_tgid",5,6,6.66668321805998
"42",NA,"<audio src='stimsounds/empty.wav', autoplay='true'></audio><div id='rectangle'></div>",NA,"html-keyboard-response",41,75438,"0.0-4.0-1.18","null",18,"sprock","feedback","big",0,"training",366.467156970477,"aibq_dark_tgid",5,6,NA
"43",697.404999984428,"<audio src='stimsounds/sprock.mp3', autoplay='true'></audio><div class='displayed'><div style='width: 700px;'><div style='float: center;'><div id='rectangle'></div><img src='stim-images/object18bluebig.jpg' width='401.44407081461276' height='401.44407081461276'></img></div></div></div>",NA,"html-keyboard-response",42,76138,"0.0-4.0-0.19","70",18,"sprock","trial","big",1,"training",401.444070814613,"aibq_dark_tgid",5,7,6.54736630368019
"44",NA,"<audio src='stimsounds/empty.wav', autoplay='true'></audio><div id='rectangle'></div>",NA,"html-keyboard-response",43,77390,"0.0-4.0-1.19","null",18,"sprock","feedback","big",0,"training",401.444070814613,"aibq_dark_tgid",5,7,NA
"45",743.505000020377,"<audio src='stimsounds/boti.mp3', autoplay='true'></audio><div class='displayed'><div style='width: 700px;'><div style='float: center;'><div id='rectangle'></div><img src='stim-images/object12bluebig.jpg' width='142.63593773350829' height='142.63593773350829'></img></div></div></div>",NA,"html-keyboard-response",44,78136,"0.0-4.0-0.20","74",12,"boti","trial","small",1,"training",142.635937733508,"aibq_dark_tgid",5,1,6.61137549085457
"46",NA,"<audio src='stimsounds/empty.wav', autoplay='true'></audio><div id='rectangle'></div>",NA,"html-keyboard-response",45,79388,"0.0-4.0-1.20","null",12,"boti","feedback","small",0,"training",142.635937733508,"aibq_dark_tgid",5,1,NA
"47",815.214999951422,"<audio src='stimsounds/boti.mp3', autoplay='true'></audio><div class='displayed'><div style='width: 700px;'><div style='float: center;'><div id='rectangle'></div><img src='stim-images/object12bluebig.jpg' width='140.50978293677355' height='140.50978293677355'></img></div></div></div>",NA,"html-keyboard-response",46,80206,"0.0-4.0-0.21","74",12,"boti","trial","small",1,"training",140.509782936774,"aibq_dark_tgid",5,1,6.70345188207218
"48",NA,"<audio src='stimsounds/empty.wav', autoplay='true'></audio><div id='rectangle'></div>",NA,"html-keyboard-response",47,81458,"0.0-4.0-1.21","null",12,"boti","feedback","small",0,"training",140.509782936774,"aibq_dark_tgid",5,1,NA
"49",845.684999949299,"<audio src='stimsounds/boti.mp3', autoplay='true'></audio><div class='displayed'><div style='width: 700px;'><div style='float: center;'><div id='rectangle'></div><img src='stim-images/object12bluebig.jpg' width='178.34516791420583' height='178.34516791420583'></img></div></div></div>",NA,"html-keyboard-response",48,82306,"0.0-4.0-0.22","74",12,"boti","trial","small",1,"training",178.345167914206,"aibq_dark_tgid",6,1,6.74014694978483
"50",NA,"<audio src='stimsounds/empty.wav', autoplay='true'></audio><div id='rectangle'></div>",NA,"html-keyboard-response",49,83558,"0.0-4.0-1.22","null",12,"boti","feedback","small",0,"training",178.345167914206,"aibq_dark_tgid",6,1,NA
"51",1006.64499995764,"<audio src='stimsounds/sprock.mp3', autoplay='true'></audio><div class='displayed'><div style='width: 700px;'><div style='float: center;'><div id='rectangle'></div><img src='stim-images/object18bluebig.jpg' width='376.83353008996505' height='376.83353008996505'></img></div></div></div>",NA,"html-keyboard-response",50,84566,"0.0-4.0-0.23","70",18,"sprock","trial","big",1,"training",376.833530089965,"aibq_dark_tgid",6,6,6.91437829824829
"52",NA,"<audio src='stimsounds/empty.wav', autoplay='true'></audio><div id='rectangle'></div>",NA,"html-keyboard-response",51,85819,"0.0-4.0-1.23","null",18,"sprock","feedback","big",0,"training",376.833530089965,"aibq_dark_tgid",6,6,NA
"53",1227.32499998529,"<audio src='stimsounds/boti.mp3', autoplay='true'></audio><div class='displayed'><div style='width: 700px;'><div style='float: center;'><div id='rectangle'></div><img src='stim-images/object12bluebig.jpg' width='171.69746846648448' height='171.69746846648448'></img></div></div></div>",NA,"html-keyboard-response",52,87048,"0.0-4.0-0.24","74",12,"boti","trial","small",1,"training",171.697468466484,"aibq_dark_tgid",6,1,7.11259228330171
"54",NA,"<audio src='stimsounds/empty.wav', autoplay='true'></audio><div id='rectangle'></div>",NA,"html-keyboard-response",53,88301,"0.0-4.0-1.24","null",12,"boti","feedback","small",0,"training",171.697468466484,"aibq_dark_tgid",6,1,NA
"55",992.830000002868,"<audio src='stimsounds/sprock.mp3', autoplay='true'></audio><div class='displayed'><div style='width: 700px;'><div style='float: center;'><div id='rectangle'></div><img src='stim-images/object18bluebig.jpg' width='366.1309049217933' height='366.1309049217933'></img></div></div></div>",NA,"html-keyboard-response",54,89296,"0.0-4.0-0.25","70",18,"sprock","trial","big",1,"training",366.130904921793,"aibq_dark_tgid",6,6,6.90055945100322
"56",NA,"<audio src='stimsounds/empty.wav', autoplay='true'></audio><div id='rectangle'></div>",NA,"html-keyboard-response",55,90548,"0.0-4.0-1.25","null",18,"sprock","feedback","big",0,"training",366.130904921793,"aibq_dark_tgid",6,6,NA
"57",903.755000093952,"<audio src='stimsounds/sprock.mp3', autoplay='true'></audio><div class='displayed'><div style='width: 700px;'><div style='float: center;'><div id='rectangle'></div><img src='stim-images/object18bluebig.jpg' width='382.60049850825965' height='382.60049850825965'></img></div></div></div>",NA,"html-keyboard-response",56,91454,"0.0-4.0-0.26","70",18,"sprock","trial","big",1,"training",382.60049850826,"aibq_dark_tgid",7,7,6.80655830606509
"58",NA,"<audio src='stimsounds/empty.wav', autoplay='true'></audio><div id='rectangle'></div>",NA,"html-keyboard-response",57,92707,"0.0-4.0-1.26","null",18,"sprock","feedback","big",0,"training",382.60049850826,"aibq_dark_tgid",7,7,NA
"59",886.015000054613,"<audio src='stimsounds/sprock.mp3', autoplay='true'></audio><div class='displayed'><div style='width: 700px;'><div style='float: center;'><div id='rectangle'></div><img src='stim-images/object18bluebig.jpg' width='415.6326983330823' height='415.6326983330823'></img></div></div></div>",NA,"html-keyboard-response",58,93596,"0.0-4.0-0.27","74",18,"sprock","trial","big",0,"training",415.632698333082,"aibq_dark_tgid",7,7,6.78673388054598
"60",NA,"<audio src='stimsounds/buzzer.wav', autoplay='true'></audio><div id='rectangle'></div>",NA,"html-keyboard-response",59,94849,"0.0-4.0-1.27","null",18,"sprock","feedback","big",0,"training",415.632698333082,"aibq_dark_tgid",7,7,NA
"61",885.019999928772,"<audio src='stimsounds/boti.mp3', autoplay='true'></audio><div class='displayed'><div style='width: 700px;'><div style='float: center;'><div id='rectangle'></div><img src='stim-images/object12bluebig.jpg' width='217.57848136587086' height='217.57848136587086'></img></div></div></div>",NA,"html-keyboard-response",60,95736,"0.0-4.0-0.28","74",12,"boti","trial","small",1,"training",217.578481365871,"aibq_dark_tgid",7,2,6.78561024354215
"62",NA,"<audio src='stimsounds/empty.wav', autoplay='true'></audio><div id='rectangle'></div>",NA,"html-keyboard-response",61,96988,"0.0-4.0-1.28","null",12,"boti","feedback","small",0,"training",217.578481365871,"aibq_dark_tgid",7,2,NA
"63",985.665000043809,"<audio src='stimsounds/boti.mp3', autoplay='true'></audio><div class='displayed'><div style='width: 700px;'><div style='float: center;'><div id='rectangle'></div><img src='stim-images/object12bluebig.jpg' width='214.4299088686375' height='214.4299088686375'></img></div></div></div>",NA,"html-keyboard-response",62,97976,"0.0-4.0-0.29","74",12,"boti","trial","small",1,"training",214.429908868638,"aibq_dark_tgid",7,2,6.89331654032444
"64",NA,"<audio src='stimsounds/empty.wav', autoplay='true'></audio><div id='rectangle'></div>",NA,"html-keyboard-response",63,99229,"0.0-4.0-1.29","null",12,"boti","feedback","small",0,"training",214.429908868638,"aibq_dark_tgid",7,2,NA
"65",3086.13500010688,"We will now begin the testing phase. <p>Press F for sprock. Press J for boti. Please go as quickly as you can without making mistakes.</p> <p>Press Space to begin.</p>",NA,"html-keyboard-response",64,102316,"0.0-5.0-0.0","32",NA,NA,NA,NA,NA,NA,NA,"aibq_dark_tgid",8,NA,8.03467477795036
"66",3148.29000004102,"<div class='displayed'><div style='width: 700px;'><div style='float: center;'><img src='stim-images/object18bluebig.jpg' width='405.90566363590995' height='405.90566363590995'></img></div></div></div><div id='rectangle'></div>",NA,"html-keyboard-response",65,105466,"0.0-6.0-0.0","70",18,"sprock","trial","big",1,"testing",405.90566363591,"aibq_dark_tgid",8,7,8.05461472728956
"67",NA,"<div id='rectangle'></div>",NA,"html-keyboard-response",66,106467,"0.0-6.0-1.0","null",18,"sprock","feedback","big",0,"testing",405.90566363591,"aibq_dark_tgid",8,7,NA
"68",707.46499998495,"<div class='displayed'><div style='width: 700px;'><div style='float: center;'><img src='stim-images/object18bluebig.jpg' width='357.57126221503427' height='357.57126221503427'></img></div></div></div><div id='rectangle'></div>",NA,"html-keyboard-response",67,107176,"0.0-6.0-0.1","70",18,"sprock","trial","big",1,"testing",357.571262215034,"aibq_dark_tgid",8,6,6.56168815830778
"69",NA,"<div id='rectangle'></div>",NA,"html-keyboard-response",68,108177,"0.0-6.0-1.1","null",18,"sprock","feedback","big",0,"testing",357.571262215034,"aibq_dark_tgid",8,6,NA
"70",658.255000016652,"<div class='displayed'><div style='width: 700px;'><div style='float: center;'><img src='stim-images/object18bluebig.jpg' width='298.7246217705403' height='298.7246217705403'></img></div></div></div><div id='rectangle'></div>",NA,"html-keyboard-response",69,108838,"0.0-6.0-0.2","70",18,"sprock","trial","big",1,"testing",298.72462177054,"aibq_dark_tgid",8,4,6.48959239427108
"71",NA,"<div id='rectangle'></div>",NA,"html-keyboard-response",70,109839,"0.0-6.0-1.2","null",18,"sprock","feedback","big",0,"testing",298.72462177054,"aibq_dark_tgid",8,4,NA
"72",1115.80000002868,"<div class='displayed'><div style='width: 700px;'><div style='float: center;'><img src='stim-images/object12bluebig.jpg' width='232.21158564238905' height='232.21158564238905'></img></div></div></div><div id='rectangle'></div>",NA,"html-keyboard-response",71,110956,"0.0-6.0-0.3","74",12,"boti","trial","small",1,"testing",232.211585642389,"aibq_dark_tgid",8,3,7.01732691543714
"73",NA,"<div id='rectangle'></div>",NA,"html-keyboard-response",72,111957,"0.0-6.0-1.3","null",12,"boti","feedback","small",0,"testing",232.211585642389,"aibq_dark_tgid",9,3,NA
"74",717.274999944493,"<div class='displayed'><div style='width: 700px;'><div style='float: center;'><img src='stim-images/object12bluebig.jpg' width='126.72916529717733' height='126.72916529717733'></img></div></div></div><div id='rectangle'></div>",NA,"html-keyboard-response",73,112675,"0.0-6.0-0.4","74",12,"boti","trial","small",1,"testing",126.729165297177,"aibq_dark_tgid",9,0,6.57545930952695
"75",NA,"<div id='rectangle'></div>",NA,"html-keyboard-response",74,113677,"0.0-6.0-1.4","null",12,"boti","feedback","small",0,"testing",126.729165297177,"aibq_dark_tgid",9,0,NA
"76",858.100000070408,"<div class='displayed'><div style='width: 700px;'><div style='float: center;'><img src='stim-images/object12bluebig.jpg' width='191.93712016063944' height='191.93712016063944'></img></div></div></div><div id='rectangle'></div>",NA,"html-keyboard-response",75,114536,"0.0-6.0-0.5","74",12,"boti","trial","small",1,"testing",191.937120160639,"aibq_dark_tgid",9,2,6.75472064289513
"77",NA,"<div id='rectangle'></div>",NA,"html-keyboard-response",76,115538,"0.0-6.0-1.5","null",12,"boti","feedback","small",0,"testing",191.937120160639,"aibq_dark_tgid",9,2,NA
"78",916.925000026822,"<div class='displayed'><div style='width: 700px;'><div style='float: center;'><img src='stim-images/object18bluebig.jpg' width='276.4761400820539' height='276.4761400820539'></img></div></div></div><div id='rectangle'></div>",NA,"html-keyboard-response",77,116456,"0.0-6.0-0.6","74",18,"sprock","trial","big",0,"testing",276.476140082054,"aibq_dark_tgid",9,4,6.82102568050029
"79",NA,"<div id='rectangle'></div>",NA,"html-keyboard-response",78,117457,"0.0-6.0-1.6","null",18,"sprock","feedback","big",0,"testing",276.476140082054,"aibq_dark_tgid",9,4,NA
"80",1137.30500009842,"<div class='displayed'><div style='width: 700px;'><div style='float: center;'><img src='stim-images/object18bluebig.jpg' width='431.6222327582391' height='431.6222327582391'></img></div></div></div><div id='rectangle'></div>",NA,"html-keyboard-response",79,118596,"0.0-6.0-0.7","70",18,"sprock","trial","big",1,"testing",431.622232758239,"aibq_dark_tgid",9,8,7.03641670764466
"81",NA,"<div id='rectangle'></div>",NA,"html-keyboard-response",80,119599,"0.0-6.0-1.7","null",18,"sprock","feedback","big",0,"testing",431.622232758239,"aibq_dark_tgid",10,8,NA
"82",787.57000004407,"<div class='displayed'><div style='width: 700px;'><div style='float: center;'><img src='stim-images/object18bluebig.jpg' width='456.0738566427332' height='456.0738566427332'></img></div></div></div><div id='rectangle'></div>",NA,"html-keyboard-response",81,120388,"0.0-6.0-0.8","70",18,"sprock","trial","big",1,"testing",456.073856642733,"aibq_dark_tgid",10,8,6.66895225569425
"83",NA,"<div id='rectangle'></div>",NA,"html-keyboard-response",82,121389,"0.0-6.0-1.8","null",18,"sprock","feedback","big",0,"testing",456.073856642733,"aibq_dark_tgid",10,8,NA
"84",815.119999926537,"<div class='displayed'><div style='width: 700px;'><div style='float: center;'><img src='stim-images/object12bluebig.jpg' width='179.44503698070667' height='179.44503698070667'></img></div></div></div><div id='rectangle'></div>",NA,"html-keyboard-response",83,122206,"0.0-6.0-0.9","70",12,"boti","trial","small",0,"testing",179.445036980707,"aibq_dark_tgid",10,1,6.7033353415759
"85",NA,"<div id='rectangle'></div>",NA,"html-keyboard-response",84,123208,"0.0-6.0-1.9","null",12,"boti","feedback","small",0,"testing",179.445036980707,"aibq_dark_tgid",10,1,NA
"86",856.754999957047,"<div class='displayed'><div style='width: 700px;'><div style='float: center;'><img src='stim-images/object12bluebig.jpg' width='260.5466966552672' height='260.5466966552672'></img></div></div></div><div id='rectangle'></div>",NA,"html-keyboard-response",85,124066,"0.0-6.0-0.10","74",12,"boti","trial","small",1,"testing",260.546696655267,"aibq_dark_tgid",10,4,6.75315199669572
"87",NA,"<div id='rectangle'></div>",NA,"html-keyboard-response",86,125068,"0.0-6.0-1.10","null",12,"boti","feedback","small",0,"testing",260.546696655267,"aibq_dark_tgid",10,4,NA
"88",837.380000040866,"<div class='displayed'><div style='width: 700px;'><div style='float: center;'><img src='stim-images/object18bluebig.jpg' width='318.2853385080034' height='318.2853385080034'></img></div></div></div><div id='rectangle'></div>",NA,"html-keyboard-response",87,125907,"0.0-6.0-0.11","70",18,"sprock","trial","big",1,"testing",318.285338508003,"aibq_dark_tgid",10,5,6.73027796989986
"89",NA,"<div id='rectangle'></div>",NA,"html-keyboard-response",88,126909,"0.0-6.0-1.11","null",18,"sprock","feedback","big",0,"testing",318.285338508003,"aibq_dark_tgid",11,5,NA
"90",1016.04499993846,"<div class='displayed'><div style='width: 700px;'><div style='float: center;'><img src='stim-images/object18bluebig.jpg' width='389.723203881228' height='389.723203881228'></img></div></div></div><div id='rectangle'></div>",NA,"html-keyboard-response",89,127926,"0.0-6.0-0.12","70",18,"sprock","trial","big",1,"testing",389.723203881228,"aibq_dark_tgid",11,7,6.92367291843561
"91",NA,"<div id='rectangle'></div>",NA,"html-keyboard-response",90,128927,"0.0-6.0-1.12","null",18,"sprock","feedback","big",0,"testing",389.723203881228,"aibq_dark_tgid",11,7,NA
"92",777.579999994487,"<div class='displayed'><div style='width: 700px;'><div style='float: center;'><img src='stim-images/object18bluebig.jpg' width='340.2907888371345' height='340.2907888371345'></img></div></div></div><div id='rectangle'></div>",NA,"html-keyboard-response",91,129706,"0.0-6.0-0.13","70",18,"sprock","trial","big",1,"testing",340.290788837135,"aibq_dark_tgid",11,6,6.65618653264376
"93",NA,"<div id='rectangle'></div>",NA,"html-keyboard-response",92,130708,"0.0-6.0-1.13","null",18,"sprock","feedback","big",0,"testing",340.290788837135,"aibq_dark_tgid",11,6,NA
"94",1038.27000001911,"<div class='displayed'><div style='width: 700px;'><div style='float: center;'><img src='stim-images/object12bluebig.jpg' width='214.23149795753562' height='214.23149795753562'></img></div></div></div><div id='rectangle'></div>",NA,"html-keyboard-response",93,131747,"0.0-6.0-0.14","74",12,"boti","trial","small",1,"testing",214.231497957536,"aibq_dark_tgid",11,2,6.94531114552698
"95",NA,"<div id='rectangle'></div>",NA,"html-keyboard-response",94,132748,"0.0-6.0-1.14","null",12,"boti","feedback","small",0,"testing",214.231497957536,"aibq_dark_tgid",11,2,NA
"96",655.779999913648,"<div class='displayed'><div style='width: 700px;'><div style='float: center;'><img src='stim-images/object12bluebig.jpg' width='139.79877674272853' height='139.79877674272853'></img></div></div></div><div id='rectangle'></div>",NA,"html-keyboard-response",95,133406,"0.0-6.0-0.15","74",12,"boti","trial","small",1,"testing",139.798776742729,"aibq_dark_tgid",11,0,6.48582536671105
"97",NA,"<div id='rectangle'></div>",NA,"html-keyboard-response",96,134407,"0.0-6.0-1.15","null",12,"boti","feedback","small",0,"testing",139.798776742729,"aibq_dark_tgid",12,0,NA
"98",658.434999990277,"<div class='displayed'><div style='width: 700px;'><div style='float: center;'><img src='stim-images/object12bluebig.jpg' width='223.21324706750346' height='223.21324706750346'></img></div></div></div><div id='rectangle'></div>",NA,"html-keyboard-response",97,135067,"0.0-6.0-0.16","74",12,"boti","trial","small",1,"testing",223.213247067503,"aibq_dark_tgid",12,3,6.48986580710895
"99",NA,"<div id='rectangle'></div>",NA,"html-keyboard-response",98,136068,"0.0-6.0-1.16","null",12,"boti","feedback","small",0,"testing",223.213247067503,"aibq_dark_tgid",12,3,NA
"100",656.074999948032,"<div class='displayed'><div style='width: 700px;'><div style='float: center;'><img src='stim-images/object12bluebig.jpg' width='292.6585398684822' height='292.6585398684822'></img></div></div></div><div id='rectangle'></div>",NA,"html-keyboard-response",99,136726,"0.0-6.0-0.17","74",12,"boti","trial","small",1,"testing",292.658539868482,"aibq_dark_tgid",12,4,6.48627511159808
"101",NA,"<div id='rectangle'></div>",NA,"html-keyboard-response",100,137728,"0.0-6.0-1.17","null",12,"boti","feedback","small",0,"testing",292.658539868482,"aibq_dark_tgid",12,4,NA
"102",654.489999986254,"<div class='displayed'><div style='width: 700px;'><div style='float: center;'><img src='stim-images/object18bluebig.jpg' width='331.1473615615127' height='331.1473615615127'></img></div></div></div><div id='rectangle'></div>",NA,"html-keyboard-response",101,138384,"0.0-6.0-0.18","74",18,"sprock","trial","big",0,"testing",331.147361561513,"aibq_dark_tgid",12,5,6.48385630637342
"103",NA,"<div id='rectangle'></div>",NA,"html-keyboard-response",102,139385,"0.0-6.0-1.18","null",18,"sprock","feedback","big",0,"testing",331.147361561513,"aibq_dark_tgid",12,5,NA
"104",84.9650000454858,"<div class='displayed'><div style='width: 700px;'><div style='float: center;'><img src='stim-images/object12bluebig.jpg' width='166.04777347682221' height='166.04777347682221'></img></div></div></div><div id='rectangle'></div>",NA,"html-keyboard-response",103,139471,"0.0-6.0-0.19","74",12,"boti","trial","small",1,"testing",166.047773476822,"aibq_dark_tgid",12,1,4.44223940752142
"105",NA,"<div id='rectangle'></div>",NA,"html-keyboard-response",104,140472,"0.0-6.0-1.19","null",12,"boti","feedback","small",0,"testing",166.047773476822,"aibq_dark_tgid",13,1,NA
"106",4892.44999992661,"<b>Thank you for completing this experiment!</b><p></p><p class='block-text-debrief'>This experiment is a replication of previous work on category learning from direct experience showing that people categorize typical members of a category more quickly than atypical ones. In this case, we are looking to see if participants are faster to categorize alien fruits that are more typical of their categories (closer to the center of the size distribution of the category). That is, participants will categorize big sprocks and small botis more quickly than small sprocks and big botis.</p><p>Thank you for your participation!</p>",0,"html-button-response",105,145366,"0.0-7.0",NA,NA,NA,NA,NA,NA,NA,NA,"aibq_dark_tgid",13,NA,8.49544847947894
"107",4585.54500003811,"<div id='consent'><img src='img/cmu_logo.png' alt='Carnegie Mellon University'><p id='logo-text'><u>Online Consent Form</u></p><small><p class='block-text-wide'>This game is part of a research study conducted by Daniel Yurovsky at Carnegie Mellon University. </p><p class='block-text-wide'><b>Summary</b>  In this game, you be presented a series of inoffensive stimuli designed to measure how people learn and communicate. You will be asked to make responses via mouse and keyboard. There are no foreseeable risks to you in this study, and participation will take no more than 10 minutes. Being in this study is voluntary - it is your choice.</p><p class='block-text-wide'><b>Purpose</b> In this study, we are investigating the development of language and communication.  Our research explores how infants and young children learn new words so quickly from the language spoken around them, as well as how adults learn language.  We are also interested in how adults foster this rapid vocabulary growth.</p><p class='block-text-wide'><b>Procedures</b> We will present you with a variety of stimuli, including natural and artificial language samples, pictures of known or unknown objects, and/or movies of people talking. Sometimes some of the speech you will hear will be from a foreign or made-up language. You will be asked to make judgments about these stimuli using the mouse and keyboard. We expect that this study will take around 5 minutes and can completed online in your browser.</p><p class='block-text-wide'><b>Participant Requirements</b> Participation in this study is limited to individuals age 18 and older who are fluent speakers of English.</p><p class='block-text-wide'><b>Risks</b> The risks and discomfort associated with participation in this study are no greater than those ordinarily encountered in daily life or during other online activities. You may become bored with the game.<p class='block-text-wide'><b>Benefits</b> There may be no personal benefit from your participation in the study but the knowledge received may be of value to humanity.<p class='block-text-wide'><b>Compensation & Costs</b> You will be compensated at the rate at least $6/hour for your participation in this research. This duration is determined by the maximum time allotted for this study, not the amount of time you take to complete it.<br>There will be no cost to you if you participate in this study.</p><p class='block-text-wide'><b>Future Use of Information and/or Bio-Specimens</b> In the future, once we have removed all identifiable information from your data, we may use the data for our future research studies, or we may distribute the data to other investigators for their research studies.  We would do this without getting additional informed consent from you (or your legally authorized representative).  Sharing of data with other researchers will only be done in such a manner that you will not be identified.<p class='block-text-wide'><b>Confidentiality</b> The data captured for the research does not include any personally identifiable information about you beyond your Amazon Mechanical Turk id and IP address.<p class='block-text-wide'><b>Right to Ask Questions & Contact Information</b> If you have any questions about this study, you should feel free to ask them by contacting the Principal Investigator now at: Daniel Yurovsky, Psychology Department, 5000 Forbes Ave, Pittsburgh, PA 15213. Phone: (412) 268-6266 Email: yurovsky@cmu.edu. If you have questions later, desire additional information, or wish to withdraw your participation please contact the Principal Investigator by mail, phone or e-mail in accordance with the contact information listed above.<br>If you have questions pertaining to your rights as a research participant; or to report concerns to this study, you should contact the Office of Research integrity and Compliance at Carnegie Mellon University. Email: irb-review@andrew.cmu.edu. Phone: 412-268-1901 or 412-268-5460. </p><p class='block-text-wide'><b>Voluntary Participation</b> Your participation in this research is voluntary. You may discontinue participation at any time during the research activity. You may print a copy of this consent form for your records.</p><p class='block-text-wide'>I am age 18 or older.<input type='radio' name='age' value='eighteen' onclick=enable('start')> Yes<input type='radio' name='age' value='not_eighteen' onclick=disable('start')> No</p><p class='block-text-wide'>I have read and understand the information above.<input type='radio' name='understand' value='understood' onclick=enable('start')> Yes<input type='radio' name='understand' value='not_understood' onclick=disable('start')> No</p><p class='block-text-wide'>I want to participate in this research and continue with the game.<input type='radio' name='give_consent' value='consent' onclick=enable('start')> Yes<input type='radio' name='give_consent' value='not_consent' onclick=disable('start')> No </p></small></div>",0,"html-button-response",0,4854,"0.0-0.0",NA,NA,NA,NA,NA,NA,NA,NA,"arck_wlpe_ufar",0,NA,8.43066424350185
"108",1878.02500010002,"Press the keyboard key of the letter that comes after the letter d in the alphabet.",NA,"html-keyboard-response",1,6733,"0.0-1.0","69",NA,NA,NA,NA,NA,NA,NA,"arck_wlpe_ufar",0,NA,7.53797597176694
"109",1214.64499994181,"img/speaker.png",0,"image-button-response",2,7950,"0.0-2.0",NA,NA,NA,NA,NA,NA,NA,NA,"arck_wlpe_ufar",0,NA,7.10220713196358
"110",1342.89999993052,"<b>Instructions</b><p>You will see images of two categories of alien fruits, named sprock and blicket .</p> <p>They will come out in random order, one at a time.</p><p>For one category, press the ""F"" key, and for the other category, press the ""J"" key. </p><p>You won't know which key corresponds to which fruit at first, but make your best guesses and over time, you will learn.</p><p>Remember, you will use the ""F"" and ""J"" keys to categorize the fruits.</p><p>Press the space bar to begin.</p>",NA,"html-keyboard-response",3,9294,"0.0-3.0","32",NA,NA,NA,NA,NA,NA,NA,"arck_wlpe_ufar",0,NA,7.20258673353539
"111",1408.54999993462,"<audio src='stimsounds/sprock.mp3', autoplay='true'></audio><div class='displayed'><div style='width: 700px;'><div style='float: center;'><div id='rectangle'></div><img src='stim-images/object8bluebig.jpg' width='337.67464568283737' height='337.67464568283737'></img></div></div></div>",NA,"html-keyboard-response",4,10705,"0.0-4.0-0.0","74",8,"sprock","trial","big",0,"training",337.674645682837,"arck_wlpe_ufar",0,5,7.25031608539749
"112",NA,"<audio src='stimsounds/buzzer.wav', autoplay='true'></audio><div id='rectangle'></div>",NA,"html-keyboard-response",5,11959,"0.0-4.0-1.0","null",8,"sprock","feedback","big",0,"training",337.674645682837,"arck_wlpe_ufar",0,5,NA
"113",722.029999946244,"<audio src='stimsounds/sprock.mp3', autoplay='true'></audio><div class='displayed'><div style='width: 700px;'><div style='float: center;'><div id='rectangle'></div><img src='stim-images/object8bluebig.jpg' width='381.1629399108014' height='381.1629399108014'></img></div></div></div>",NA,"html-keyboard-response",6,12684,"0.0-4.0-0.1","70",8,"sprock","trial","big",1,"training",381.162939910801,"arck_wlpe_ufar",0,7,6.58206668920168
"114",NA,"<audio src='stimsounds/empty.wav', autoplay='true'></audio><div id='rectangle'></div>",NA,"html-keyboard-response",7,13940,"0.0-4.0-1.1","null",8,"sprock","feedback","big",0,"training",381.162939910801,"arck_wlpe_ufar",0,7,NA
"115",508.48999992013,"<audio src='stimsounds/blicket.mp3', autoplay='true'></audio><div class='displayed'><div style='width: 700px;'><div style='float: center;'><div id='rectangle'></div><img src='stim-images/object11bluebig.jpg' width='248.23171204129213' height='248.23171204129213'></img></div></div></div>",NA,"html-keyboard-response",8,14450,"0.0-4.0-0.2","74",11,"blicket","trial","small",1,"training",248.231712041292,"arck_wlpe_ufar",1,3,6.23144554945479
"116",NA,"<audio src='stimsounds/empty.wav', autoplay='true'></audio><div id='rectangle'></div>",NA,"html-keyboard-response",9,15704,"0.0-4.0-1.2","null",11,"blicket","feedback","small",0,"training",248.231712041292,"arck_wlpe_ufar",1,3,NA
"117",297.045000013895,"<audio src='stimsounds/sprock.mp3', autoplay='true'></audio><div class='displayed'><div style='width: 700px;'><div style='float: center;'><div id='rectangle'></div><img src='stim-images/object8bluebig.jpg' width='282.9357220982917' height='282.9357220982917'></img></div></div></div>",NA,"html-keyboard-response",10,16003,"0.0-4.0-0.3","70",8,"sprock","trial","big",1,"training",282.935722098292,"arck_wlpe_ufar",1,4,5.69388364252373
"118",NA,"<audio src='stimsounds/empty.wav', autoplay='true'></audio><div id='rectangle'></div>",NA,"html-keyboard-response",11,17255,"0.0-4.0-1.3","null",8,"sprock","feedback","big",0,"training",282.935722098292,"arck_wlpe_ufar",1,4,NA
"119",365.045000100508,"<audio src='stimsounds/sprock.mp3', autoplay='true'></audio><div class='displayed'><div style='width: 700px;'><div style='float: center;'><div id='rectangle'></div><img src='stim-images/object8bluebig.jpg' width='340.29076986881006' height='340.29076986881006'></img></div></div></div>",NA,"html-keyboard-response",12,17623,"0.0-4.0-0.4","70",8,"sprock","trial","big",1,"training",340.29076986881,"arck_wlpe_ufar",1,6,5.90002063392976
"120",NA,"<audio src='stimsounds/empty.wav', autoplay='true'></audio><div id='rectangle'></div>",NA,"html-keyboard-response",13,18880,"0.0-4.0-1.4","null",8,"sprock","feedback","big",0,"training",340.29076986881,"arck_wlpe_ufar",1,6,NA
"121",363.965000025928,"<audio src='stimsounds/blicket.mp3', autoplay='true'></audio><div class='displayed'><div style='width: 700px;'><div style='float: center;'><div id='rectangle'></div><img src='stim-images/object11bluebig.jpg' width='249.329696148888' height='249.329696148888'></img></div></div></div>",NA,"html-keyboard-response",14,19245,"0.0-4.0-0.5","74",11,"blicket","trial","small",1,"training",249.329696148888,"arck_wlpe_ufar",1,3,5.89705770923875
"122",NA,"<audio src='stimsounds/empty.wav', autoplay='true'></audio><div id='rectangle'></div>",NA,"html-keyboard-response",15,20502,"0.0-4.0-1.5","null",11,"blicket","feedback","small",0,"training",249.329696148888,"arck_wlpe_ufar",1,3,NA
"123",345.685000065714,"<audio src='stimsounds/blicket.mp3', autoplay='true'></audio><div class='displayed'><div style='width: 700px;'><div style='float: center;'><div id='rectangle'></div><img src='stim-images/object11bluebig.jpg' width='198.57758755497179' height='198.57758755497179'></img></div></div></div>",NA,"html-keyboard-response",16,20850,"0.0-4.0-0.6","74",11,"blicket","trial","small",1,"training",198.577587554972,"arck_wlpe_ufar",2,2,5.84552795595356
"124",NA,"<audio src='stimsounds/empty.wav', autoplay='true'></audio><div id='rectangle'></div>",NA,"html-keyboard-response",17,22106,"0.0-4.0-1.6","null",11,"blicket","feedback","small",0,"training",198.577587554972,"arck_wlpe_ufar",2,2,NA
"125",350.135000073351,"<audio src='stimsounds/blicket.mp3', autoplay='true'></audio><div class='displayed'><div style='width: 700px;'><div style='float: center;'><div id='rectangle'></div><img src='stim-images/object11bluebig.jpg' width='194.24295802512893' height='194.24295802512893'></img></div></div></div>",NA,"html-keyboard-response",18,22459,"0.0-4.0-0.7","74",11,"blicket","trial","small",1,"training",194.242958025129,"arck_wlpe_ufar",2,2,5.85831879461003
"126",NA,"<audio src='stimsounds/empty.wav', autoplay='true'></audio><div id='rectangle'></div>",NA,"html-keyboard-response",19,23715,"0.0-4.0-1.7","null",11,"blicket","feedback","small",0,"training",194.242958025129,"arck_wlpe_ufar",2,2,NA
"127",410.285000107251,"<audio src='stimsounds/sprock.mp3', autoplay='true'></audio><div class='displayed'><div style='width: 700px;'><div style='float: center;'><div id='rectangle'></div><img src='stim-images/object8bluebig.jpg' width='277.21620249531145' height='277.21620249531145'></img></div></div></div>",NA,"html-keyboard-response",20,24127,"0.0-4.0-0.8","70",8,"sprock","trial","big",1,"training",277.216202495311,"arck_wlpe_ufar",2,4,6.01685204042562
"128",NA,"<audio src='stimsounds/empty.wav', autoplay='true'></audio><div id='rectangle'></div>",NA,"html-keyboard-response",21,25383,"0.0-4.0-1.8","null",8,"sprock","feedback","big",0,"training",277.216202495311,"arck_wlpe_ufar",2,4,NA
"129",328.709999914281,"<audio src='stimsounds/blicket.mp3', autoplay='true'></audio><div class='displayed'><div style='width: 700px;'><div style='float: center;'><div id='rectangle'></div><img src='stim-images/object11bluebig.jpg' width='167.19630975641223' height='167.19630975641223'></img></div></div></div>",NA,"html-keyboard-response",22,25714,"0.0-4.0-0.9","74",11,"blicket","trial","small",1,"training",167.196309756412,"arck_wlpe_ufar",2,1,5.79517590282464
"130",NA,"<audio src='stimsounds/empty.wav', autoplay='true'></audio><div id='rectangle'></div>",NA,"html-keyboard-response",23,26970,"0.0-4.0-1.9","null",11,"blicket","feedback","small",0,"training",167.196309756412,"arck_wlpe_ufar",2,1,NA
"131",299.269999959506,"<audio src='stimsounds/sprock.mp3', autoplay='true'></audio><div class='displayed'><div style='width: 700px;'><div style='float: center;'><div id='rectangle'></div><img src='stim-images/object8bluebig.jpg' width='345.5147896936221' height='345.5147896936221'></img></div></div></div>",NA,"html-keyboard-response",24,27272,"0.0-4.0-0.10","70",8,"sprock","trial","big",1,"training",345.514789693622,"arck_wlpe_ufar",3,6,5.70134617582054
"132",NA,"<audio src='stimsounds/empty.wav', autoplay='true'></audio><div id='rectangle'></div>",NA,"html-keyboard-response",25,28525,"0.0-4.0-1.10","null",8,"sprock","feedback","big",0,"training",345.514789693622,"arck_wlpe_ufar",3,6,NA
"133",385.514999972656,"<audio src='stimsounds/sprock.mp3', autoplay='true'></audio><div class='displayed'><div style='width: 700px;'><div style='float: center;'><div id='rectangle'></div><img src='stim-images/object8bluebig.jpg' width='360.6350646743845' height='360.6350646743845'></img></div></div></div>",NA,"html-keyboard-response",26,28913,"0.0-4.0-0.11","70",8,"sprock","trial","big",1,"training",360.635064674385,"arck_wlpe_ufar",3,6,5.9545801026813
"134",NA,"<audio src='stimsounds/empty.wav', autoplay='true'></audio><div id='rectangle'></div>",NA,"html-keyboard-response",27,30166,"0.0-4.0-1.11","null",8,"sprock","feedback","big",0,"training",360.635064674385,"arck_wlpe_ufar",3,6,NA
"135",372.560000047088,"<audio src='stimsounds/sprock.mp3', autoplay='true'></audio><div class='displayed'><div style='width: 700px;'><div style='float: center;'><div id='rectangle'></div><img src='stim-images/object8bluebig.jpg' width='306.10471342997647' height='306.10471342997647'></img></div></div></div>",NA,"html-keyboard-response",28,30541,"0.0-4.0-0.12","70",8,"sprock","trial","big",1,"training",306.104713429976,"arck_wlpe_ufar",3,5,5.92039809880051
"136",NA,"<audio src='stimsounds/empty.wav', autoplay='true'></audio><div id='rectangle'></div>",NA,"html-keyboard-response",29,31797,"0.0-4.0-1.12","null",8,"sprock","feedback","big",0,"training",306.104713429976,"arck_wlpe_ufar",3,5,NA
"137",381.67999999132,"<audio src='stimsounds/blicket.mp3', autoplay='true'></audio><div class='displayed'><div style='width: 700px;'><div style='float: center;'><div id='rectangle'></div><img src='stim-images/object11bluebig.jpg' width='249.05022840948214' height='249.05022840948214'></img></div></div></div>",NA,"html-keyboard-response",30,32181,"0.0-4.0-0.13","74",11,"blicket","trial","small",1,"training",249.050228409482,"arck_wlpe_ufar",3,3,5.94458256118511
"138",NA,"<audio src='stimsounds/empty.wav', autoplay='true'></audio><div id='rectangle'></div>",NA,"html-keyboard-response",31,33437,"0.0-4.0-1.13","null",11,"blicket","feedback","small",0,"training",249.050228409482,"arck_wlpe_ufar",3,3,NA
"139",375.394999980927,"<audio src='stimsounds/blicket.mp3', autoplay='true'></audio><div class='displayed'><div style='width: 700px;'><div style='float: center;'><div id='rectangle'></div><img src='stim-images/object11bluebig.jpg' width='194.00919988493396' height='194.00919988493396'></img></div></div></div>",NA,"html-keyboard-response",32,33814,"0.0-4.0-0.14","74",11,"blicket","trial","small",1,"training",194.009199884934,"arck_wlpe_ufar",4,2,5.92797880488663
"140",NA,"<audio src='stimsounds/empty.wav', autoplay='true'></audio><div id='rectangle'></div>",NA,"html-keyboard-response",33,35070,"0.0-4.0-1.14","null",11,"blicket","feedback","small",0,"training",194.009199884934,"arck_wlpe_ufar",4,2,NA
"141",342.055000015534,"<audio src='stimsounds/sprock.mp3', autoplay='true'></audio><div class='displayed'><div style='width: 700px;'><div style='float: center;'><div id='rectangle'></div><img src='stim-images/object8bluebig.jpg' width='385.0248976965541' height='385.0248976965541'></img></div></div></div>",NA,"html-keyboard-response",34,35414,"0.0-4.0-0.15","70",8,"sprock","trial","big",1,"training",385.024897696554,"arck_wlpe_ufar",4,7,5.83497154289153
"142",NA,"<audio src='stimsounds/empty.wav', autoplay='true'></audio><div id='rectangle'></div>",NA,"html-keyboard-response",35,36671,"0.0-4.0-1.15","null",8,"sprock","feedback","big",0,"training",385.024897696554,"arck_wlpe_ufar",4,7,NA
"143",349.575000000186,"<audio src='stimsounds/sprock.mp3', autoplay='true'></audio><div class='displayed'><div style='width: 700px;'><div style='float: center;'><div id='rectangle'></div><img src='stim-images/object8bluebig.jpg' width='412.8605432892982' height='412.8605432892982'></img></div></div></div>",NA,"html-keyboard-response",36,37023,"0.0-4.0-0.16","70",8,"sprock","trial","big",1,"training",412.860543289298,"arck_wlpe_ufar",4,7,5.85671813092745
"144",NA,"<audio src='stimsounds/empty.wav', autoplay='true'></audio><div id='rectangle'></div>",NA,"html-keyboard-response",37,38274,"0.0-4.0-1.16","null",8,"sprock","feedback","big",0,"training",412.860543289298,"arck_wlpe_ufar",4,7,NA
"145",348.995000007562,"<audio src='stimsounds/blicket.mp3', autoplay='true'></audio><div class='displayed'><div style='width: 700px;'><div style='float: center;'><div id='rectangle'></div><img src='stim-images/object11bluebig.jpg' width='167.21451444768363' height='167.21451444768363'></img></div></div></div>",NA,"html-keyboard-response",38,38627,"0.0-4.0-0.17","74",11,"blicket","trial","small",1,"training",167.214514447684,"arck_wlpe_ufar",4,1,5.8550575954739
"146",NA,"<audio src='stimsounds/empty.wav', autoplay='true'></audio><div id='rectangle'></div>",NA,"html-keyboard-response",39,39884,"0.0-4.0-1.17","null",11,"blicket","feedback","small",0,"training",167.214514447684,"arck_wlpe_ufar",4,1,NA
"147",346.879999968223,"<audio src='stimsounds/sprock.mp3', autoplay='true'></audio><div class='displayed'><div style='width: 700px;'><div style='float: center;'><div id='rectangle'></div><img src='stim-images/object8bluebig.jpg' width='358.3807196818092' height='358.3807196818092'></img></div></div></div>",NA,"html-keyboard-response",40,40232,"0.0-4.0-0.18","70",8,"sprock","trial","big",1,"training",358.380719681809,"arck_wlpe_ufar",5,6,5.84897889871962
"148",NA,"<audio src='stimsounds/empty.wav', autoplay='true'></audio><div id='rectangle'></div>",NA,"html-keyboard-response",41,41487,"0.0-4.0-1.18","null",8,"sprock","feedback","big",0,"training",358.380719681809,"arck_wlpe_ufar",5,6,NA
"149",297.544999979436,"<audio src='stimsounds/blicket.mp3', autoplay='true'></audio><div class='displayed'><div style='width: 700px;'><div style='float: center;'><div id='rectangle'></div><img src='stim-images/object11bluebig.jpg' width='246.1461474927454' height='246.1461474927454'></img></div></div></div>",NA,"html-keyboard-response",42,41787,"0.0-4.0-0.19","74",11,"blicket","trial","small",1,"training",246.146147492745,"arck_wlpe_ufar",5,3,5.69556547398206
"150",NA,"<audio src='stimsounds/empty.wav', autoplay='true'></audio><div id='rectangle'></div>",NA,"html-keyboard-response",43,43040,"0.0-4.0-1.19","null",11,"blicket","feedback","small",0,"training",246.146147492745,"arck_wlpe_ufar",5,3,NA
"151",289.740000036545,"<audio src='stimsounds/sprock.mp3', autoplay='true'></audio><div class='displayed'><div style='width: 700px;'><div style='float: center;'><div id='rectangle'></div><img src='stim-images/object8bluebig.jpg' width='357.01537839832804' height='357.01537839832804'></img></div></div></div>",NA,"html-keyboard-response",44,43332,"0.0-4.0-0.20","70",8,"sprock","trial","big",1,"training",357.015378398328,"arck_wlpe_ufar",5,6,5.66898396923964
"152",NA,"<audio src='stimsounds/empty.wav', autoplay='true'></audio><div id='rectangle'></div>",NA,"html-keyboard-response",45,44585,"0.0-4.0-1.20","null",8,"sprock","feedback","big",0,"training",357.015378398328,"arck_wlpe_ufar",5,6,NA
"153",417.3750000773,"<audio src='stimsounds/sprock.mp3', autoplay='true'></audio><div class='displayed'><div style='width: 700px;'><div style='float: center;'><div id='rectangle'></div><img src='stim-images/object8bluebig.jpg' width='344.7991203704889' height='344.7991203704889'></img></div></div></div>",NA,"html-keyboard-response",46,45005,"0.0-4.0-0.21","70",8,"sprock","trial","big",1,"training",344.799120370489,"arck_wlpe_ufar",5,6,6.03398509844902
"154",NA,"<audio src='stimsounds/empty.wav', autoplay='true'></audio><div id='rectangle'></div>",NA,"html-keyboard-response",47,46262,"0.0-4.0-1.21","null",8,"sprock","feedback","big",0,"training",344.799120370489,"arck_wlpe_ufar",5,6,NA
"155",281.584999989718,"<audio src='stimsounds/blicket.mp3', autoplay='true'></audio><div class='displayed'><div style='width: 700px;'><div style='float: center;'><div id='rectangle'></div><img src='stim-images/object11bluebig.jpg' width='159.79565644983177' height='159.79565644983177'></img></div></div></div>",NA,"html-keyboard-response",48,46546,"0.0-4.0-0.22","74",11,"blicket","trial","small",1,"training",159.795656449832,"arck_wlpe_ufar",6,1,5.64043435578318
"156",NA,"<audio src='stimsounds/empty.wav', autoplay='true'></audio><div id='rectangle'></div>",NA,"html-keyboard-response",49,47802,"0.0-4.0-1.22","null",11,"blicket","feedback","small",0,"training",159.795656449832,"arck_wlpe_ufar",6,1,NA
"157",358.604999957606,"<audio src='stimsounds/blicket.mp3', autoplay='true'></audio><div class='displayed'><div style='width: 700px;'><div style='float: center;'><div id='rectangle'></div><img src='stim-images/object11bluebig.jpg' width='225.68281484522976' height='225.68281484522976'></img></div></div></div>",NA,"html-keyboard-response",50,48163,"0.0-4.0-0.23","74",11,"blicket","trial","small",1,"training",225.68281484523,"arck_wlpe_ufar",6,3,5.88222150406771
"158",NA,"<audio src='stimsounds/empty.wav', autoplay='true'></audio><div id='rectangle'></div>",NA,"html-keyboard-response",51,49420,"0.0-4.0-1.23","null",11,"blicket","feedback","small",0,"training",225.68281484523,"arck_wlpe_ufar",6,3,NA
"159",312.374999979511,"<audio src='stimsounds/sprock.mp3', autoplay='true'></audio><div class='displayed'><div style='width: 700px;'><div style='float: center;'><div id='rectangle'></div><img src='stim-images/object8bluebig.jpg' width='321.65026341904513' height='321.65026341904513'></img></div></div></div>",NA,"html-keyboard-response",52,49734,"0.0-4.0-0.24","70",8,"sprock","trial","big",1,"training",321.650263419045,"arck_wlpe_ufar",6,5,5.74420438908952
"160",NA,"<audio src='stimsounds/empty.wav', autoplay='true'></audio><div id='rectangle'></div>",NA,"html-keyboard-response",53,50989,"0.0-4.0-1.24","null",8,"sprock","feedback","big",0,"training",321.650263419045,"arck_wlpe_ufar",6,5,NA
"161",348.445000010543,"<audio src='stimsounds/blicket.mp3', autoplay='true'></audio><div class='displayed'><div style='width: 700px;'><div style='float: center;'><div id='rectangle'></div><img src='stim-images/object11bluebig.jpg' width='100.96734879710324' height='100.96734879710324'></img></div></div></div>",NA,"html-keyboard-response",54,51340,"0.0-4.0-0.25","74",11,"blicket","trial","small",1,"training",100.967348797103,"arck_wlpe_ufar",6,0,5.85348039855082
"162",NA,"<audio src='stimsounds/empty.wav', autoplay='true'></audio><div id='rectangle'></div>",NA,"html-keyboard-response",55,52596,"0.0-4.0-1.25","null",11,"blicket","feedback","small",0,"training",100.967348797103,"arck_wlpe_ufar",6,0,NA
"163",372.220000019297,"<audio src='stimsounds/blicket.mp3', autoplay='true'></audio><div class='displayed'><div style='width: 700px;'><div style='float: center;'><div id='rectangle'></div><img src='stim-images/object11bluebig.jpg' width='186.25624794495056' height='186.25624794495056'></img></div></div></div>",NA,"html-keyboard-response",56,52970,"0.0-4.0-0.26","74",11,"blicket","trial","small",1,"training",186.256247944951,"arck_wlpe_ufar",7,2,5.91948507736766
"164",NA,"<audio src='stimsounds/empty.wav', autoplay='true'></audio><div id='rectangle'></div>",NA,"html-keyboard-response",57,54227,"0.0-4.0-1.26","null",11,"blicket","feedback","small",0,"training",186.256247944951,"arck_wlpe_ufar",7,2,NA
"165",329.014999908395,"<audio src='stimsounds/blicket.mp3', autoplay='true'></audio><div class='displayed'><div style='width: 700px;'><div style='float: center;'><div id='rectangle'></div><img src='stim-images/object11bluebig.jpg' width='229.2501368644467' height='229.2501368644467'></img></div></div></div>",NA,"html-keyboard-response",58,54558,"0.0-4.0-0.27","70",11,"blicket","trial","small",0,"training",229.250136864447,"arck_wlpe_ufar",7,3,5.7961033421528
"166",NA,"<audio src='stimsounds/buzzer.wav', autoplay='true'></audio><div id='rectangle'></div>",NA,"html-keyboard-response",59,55810,"0.0-4.0-1.27","null",11,"blicket","feedback","small",0,"training",229.250136864447,"arck_wlpe_ufar",7,3,NA
"167",536.505000083707,"<audio src='stimsounds/sprock.mp3', autoplay='true'></audio><div class='displayed'><div style='width: 700px;'><div style='float: center;'><div id='rectangle'></div><img src='stim-images/object8bluebig.jpg' width='351.3391175563836' height='351.3391175563836'></img></div></div></div>",NA,"html-keyboard-response",60,56349,"0.0-4.0-0.28","70",8,"sprock","trial","big",1,"training",351.339117556384,"arck_wlpe_ufar",7,6,6.28507588184784
"168",NA,"<audio src='stimsounds/empty.wav', autoplay='true'></audio><div id='rectangle'></div>",NA,"html-keyboard-response",61,57602,"0.0-4.0-1.28","null",8,"sprock","feedback","big",0,"training",351.339117556384,"arck_wlpe_ufar",7,6,NA
"169",338.514999952167,"<audio src='stimsounds/blicket.mp3', autoplay='true'></audio><div class='displayed'><div style='width: 700px;'><div style='float: center;'><div id='rectangle'></div><img src='stim-images/object11bluebig.jpg' width='193.82745873654954' height='193.82745873654954'></img></div></div></div>",NA,"html-keyboard-response",62,57942,"0.0-4.0-0.29","74",11,"blicket","trial","small",1,"training",193.82745873655,"arck_wlpe_ufar",7,2,5.82456840437546
"170",NA,"<audio src='stimsounds/empty.wav', autoplay='true'></audio><div id='rectangle'></div>",NA,"html-keyboard-response",63,59196,"0.0-4.0-1.29","null",11,"blicket","feedback","small",0,"training",193.82745873655,"arck_wlpe_ufar",7,2,NA
"171",1016.90499996766,"We will now begin the testing phase. <p>Press F for sprock. Press J for blicket. Please go as quickly as you can without making mistakes.</p> <p>Press Space to begin.</p>",NA,"html-keyboard-response",64,60214,"0.0-5.0-0.0","32",NA,NA,NA,NA,NA,NA,NA,"arck_wlpe_ufar",8,NA,6.92451897965752
"172",1133.2499999553,"<div class='displayed'><div style='width: 700px;'><div style='float: center;'><img src='stim-images/object8bluebig.jpg' width='459.89384669255963' height='459.89384669255963'></img></div></div></div><div id='rectangle'></div>",NA,"html-keyboard-response",65,61349,"0.0-6.0-0.0","70",8,"sprock","trial","big",1,"testing",459.89384669256,"arck_wlpe_ufar",8,8,7.03284488978151
"173",NA,"<div id='rectangle'></div>",NA,"html-keyboard-response",66,62353,"0.0-6.0-1.0","null",8,"sprock","feedback","big",0,"testing",459.89384669256,"arck_wlpe_ufar",8,8,NA
"174",274.915000074543,"<div class='displayed'><div style='width: 700px;'><div style='float: center;'><img src='stim-images/object8bluebig.jpg' width='409.788150109791' height='409.788150109791'></img></div></div></div><div id='rectangle'></div>",NA,"html-keyboard-response",67,62630,"0.0-6.0-0.1","74",8,"sprock","trial","big",0,"testing",409.788150109791,"arck_wlpe_ufar",8,7,5.61646195925019
"175",NA,"<div id='rectangle'></div>",NA,"html-keyboard-response",68,63634,"0.0-6.0-1.1","null",8,"sprock","feedback","big",0,"testing",409.788150109791,"arck_wlpe_ufar",8,7,NA
"176",421.109999995679,"<div class='displayed'><div style='width: 700px;'><div style='float: center;'><img src='stim-images/object8bluebig.jpg' width='398.8645182769395' height='398.8645182769395'></img></div></div></div><div id='rectangle'></div>",NA,"html-keyboard-response",69,64058,"0.0-6.0-0.2","70",8,"sprock","trial","big",1,"testing",398.86451827694,"arck_wlpe_ufar",8,7,6.04289408220408
"177",NA,"<div id='rectangle'></div>",NA,"html-keyboard-response",70,65061,"0.0-6.0-1.2","null",8,"sprock","feedback","big",0,"testing",398.86451827694,"arck_wlpe_ufar",8,7,NA
"178",393.509999965318,"<div class='displayed'><div style='width: 700px;'><div style='float: center;'><img src='stim-images/object8bluebig.jpg' width='319.12541660965496' height='319.12541660965496'></img></div></div></div><div id='rectangle'></div>",NA,"html-keyboard-response",71,65456,"0.0-6.0-0.3","74",8,"sprock","trial","big",0,"testing",319.125416609655,"arck_wlpe_ufar",8,5,5.97510648040703
"179",NA,"<div id='rectangle'></div>",NA,"html-keyboard-response",72,66461,"0.0-6.0-1.3","null",8,"sprock","feedback","big",0,"testing",319.125416609655,"arck_wlpe_ufar",9,5,NA
"180",365.044999984093,"<div class='displayed'><div style='width: 700px;'><div style='float: center;'><img src='stim-images/object11bluebig.jpg' width='250.54917427050168' height='250.54917427050168'></img></div></div></div><div id='rectangle'></div>",NA,"html-keyboard-response",73,66827,"0.0-6.0-0.4","74",11,"blicket","trial","small",1,"testing",250.549174270502,"arck_wlpe_ufar",9,3,5.90002063361085
"181",NA,"<div id='rectangle'></div>",NA,"html-keyboard-response",74,67830,"0.0-6.0-1.4","null",11,"blicket","feedback","small",0,"testing",250.549174270502,"arck_wlpe_ufar",9,3,NA
"182",423.39999997057,"<div class='displayed'><div style='width: 700px;'><div style='float: center;'><img src='stim-images/object8bluebig.jpg' width='323.18249562491326' height='323.18249562491326'></img></div></div></div><div id='rectangle'></div>",NA,"html-keyboard-response",75,68255,"0.0-6.0-0.5","70",8,"sprock","trial","big",1,"testing",323.182495624913,"arck_wlpe_ufar",9,5,6.04831735863126
"183",NA,"<div id='rectangle'></div>",NA,"html-keyboard-response",76,69257,"0.0-6.0-1.5","null",8,"sprock","feedback","big",0,"testing",323.182495624913,"arck_wlpe_ufar",9,5,NA
"184",349.72000005655,"<div class='displayed'><div style='width: 700px;'><div style='float: center;'><img src='stim-images/object11bluebig.jpg' width='146.1926787806422' height='146.1926787806422'></img></div></div></div><div id='rectangle'></div>",NA,"html-keyboard-response",77,69608,"0.0-6.0-0.6","74",11,"blicket","trial","small",1,"testing",146.192678780642,"arck_wlpe_ufar",9,1,5.85713283447439
"185",NA,"<div id='rectangle'></div>",NA,"html-keyboard-response",78,70610,"0.0-6.0-1.6","null",11,"blicket","feedback","small",0,"testing",146.192678780642,"arck_wlpe_ufar",9,1,NA
"186",323.43500002753,"<div class='displayed'><div style='width: 700px;'><div style='float: center;'><img src='stim-images/object11bluebig.jpg' width='158.37062730144055' height='158.37062730144055'></img></div></div></div><div id='rectangle'></div>",NA,"html-keyboard-response",79,70935,"0.0-6.0-0.7","74",11,"blicket","trial","small",1,"testing",158.370627301441,"arck_wlpe_ufar",9,1,5.77899816648043
"187",NA,"<div id='rectangle'></div>",NA,"html-keyboard-response",80,71940,"0.0-6.0-1.7","null",11,"blicket","feedback","small",0,"testing",158.370627301441,"arck_wlpe_ufar",10,1,NA
"188",346.800000057556,"<div class='displayed'><div style='width: 700px;'><div style='float: center;'><img src='stim-images/object11bluebig.jpg' width='291.379480115899' height='291.379480115899'></img></div></div></div><div id='rectangle'></div>",NA,"html-keyboard-response",81,72288,"0.0-6.0-0.8","74",11,"blicket","trial","small",1,"testing",291.379480115899,"arck_wlpe_ufar",10,4,5.84874824507235
"189",NA,"<div id='rectangle'></div>",NA,"html-keyboard-response",82,73291,"0.0-6.0-1.8","null",11,"blicket","feedback","small",0,"testing",291.379480115899,"arck_wlpe_ufar",10,4,NA
"190",381.58500008285,"<div class='displayed'><div style='width: 700px;'><div style='float: center;'><img src='stim-images/object8bluebig.jpg' width='376.09793336992425' height='376.09793336992425'></img></div></div></div><div id='rectangle'></div>",NA,"html-keyboard-response",83,73674,"0.0-6.0-0.9","70",8,"sprock","trial","big",1,"testing",376.097933369924,"arck_wlpe_ufar",10,6,5.94433363084257
"191",NA,"<div id='rectangle'></div>",NA,"html-keyboard-response",84,74676,"0.0-6.0-1.9","null",8,"sprock","feedback","big",0,"testing",376.097933369924,"arck_wlpe_ufar",10,6,NA
"192",369.174999999814,"<div class='displayed'><div style='width: 700px;'><div style='float: center;'><img src='stim-images/object11bluebig.jpg' width='202.15726210801344' height='202.15726210801344'></img></div></div></div><div id='rectangle'></div>",NA,"html-keyboard-response",85,75047,"0.0-6.0-0.10","74",11,"blicket","trial","small",1,"testing",202.157262108013,"arck_wlpe_ufar",10,2,5.91127078635933
"193",NA,"<div id='rectangle'></div>",NA,"html-keyboard-response",86,76051,"0.0-6.0-1.10","null",11,"blicket","feedback","small",0,"testing",202.157262108013,"arck_wlpe_ufar",10,2,NA
"194",325.985000003129,"<div class='displayed'><div style='width: 700px;'><div style='float: center;'><img src='stim-images/object11bluebig.jpg' width='234.94917581407915' height='234.94917581407915'></img></div></div></div><div id='rectangle'></div>",NA,"html-keyboard-response",87,76378,"0.0-6.0-0.11","74",11,"blicket","trial","small",1,"testing",234.949175814079,"arck_wlpe_ufar",10,3,5.78685136804777
"195",NA,"<div id='rectangle'></div>",NA,"html-keyboard-response",88,77381,"0.0-6.0-1.11","null",11,"blicket","feedback","small",0,"testing",234.949175814079,"arck_wlpe_ufar",11,3,NA
"196",315.485000028275,"<div class='displayed'><div style='width: 700px;'><div style='float: center;'><img src='stim-images/object8bluebig.jpg' width='260.69234492630676' height='260.69234492630676'></img></div></div></div><div id='rectangle'></div>",NA,"html-keyboard-response",89,77698,"0.0-6.0-0.12","74",8,"sprock","trial","big",0,"testing",260.692344926307,"arck_wlpe_ufar",11,4,5.75411113735904
"197",NA,"<div id='rectangle'></div>",NA,"html-keyboard-response",90,78701,"0.0-6.0-1.12","null",8,"sprock","feedback","big",0,"testing",260.692344926307,"arck_wlpe_ufar",11,4,NA
"198",427.155000041239,"<div class='displayed'><div style='width: 700px;'><div style='float: center;'><img src='stim-images/object8bluebig.jpg' width='440.0060761130593' height='440.0060761130593'></img></div></div></div><div id='rectangle'></div>",NA,"html-keyboard-response",91,79130,"0.0-6.0-0.13","70",8,"sprock","trial","big",1,"testing",440.006076113059,"arck_wlpe_ufar",11,8,6.05714694511554
"199",NA,"<div id='rectangle'></div>",NA,"html-keyboard-response",92,80134,"0.0-6.0-1.13","null",8,"sprock","feedback","big",0,"testing",440.006076113059,"arck_wlpe_ufar",11,8,NA
"200",348.269999958575,"<div class='displayed'><div style='width: 700px;'><div style='float: center;'><img src='stim-images/object8bluebig.jpg' width='375.5152713705774' height='375.5152713705774'></img></div></div></div><div id='rectangle'></div>",NA,"html-keyboard-response",93,80483,"0.0-6.0-0.14","70",8,"sprock","trial","big",1,"testing",375.515271370577,"arck_wlpe_ufar",11,6,5.85297804089911
"201",NA,"<div id='rectangle'></div>",NA,"html-keyboard-response",94,81487,"0.0-6.0-1.14","null",8,"sprock","feedback","big",0,"testing",375.515271370577,"arck_wlpe_ufar",11,6,NA
"202",455.259999958798,"<div class='displayed'><div style='width: 700px;'><div style='float: center;'><img src='stim-images/object11bluebig.jpg' width='273.534186416408' height='273.534186416408'></img></div></div></div><div id='rectangle'></div>",NA,"html-keyboard-response",95,81943,"0.0-6.0-0.15","74",11,"blicket","trial","small",1,"testing",273.534186416408,"arck_wlpe_ufar",11,4,6.12086868422874
"203",NA,"<div id='rectangle'></div>",NA,"html-keyboard-response",96,82945,"0.0-6.0-1.15","null",11,"blicket","feedback","small",0,"testing",273.534186416408,"arck_wlpe_ufar",12,4,NA
"204",365.175000042655,"<div class='displayed'><div style='width: 700px;'><div style='float: center;'><img src='stim-images/object11bluebig.jpg' width='130.2290576075888' height='130.2290576075888'></img></div></div></div><div id='rectangle'></div>",NA,"html-keyboard-response",97,83312,"0.0-6.0-0.16","74",11,"blicket","trial","small",1,"testing",130.229057607589,"arck_wlpe_ufar",12,0,5.90037669085368
"205",NA,"<div id='rectangle'></div>",NA,"html-keyboard-response",98,84316,"0.0-6.0-1.16","null",11,"blicket","feedback","small",0,"testing",130.229057607589,"arck_wlpe_ufar",12,0,NA
"206",474.225000012666,"<div class='displayed'><div style='width: 700px;'><div style='float: center;'><img src='stim-images/object8bluebig.jpg' width='264.57706495480386' height='264.57706495480386'></img></div></div></div><div id='rectangle'></div>",NA,"html-keyboard-response",99,84792,"0.0-6.0-0.17","74",8,"sprock","trial","big",0,"testing",264.577064954804,"arck_wlpe_ufar",12,4,6.1616818926395
"207",NA,"<div id='rectangle'></div>",NA,"html-keyboard-response",100,85796,"0.0-6.0-1.17","null",8,"sprock","feedback","big",0,"testing",264.577064954804,"arck_wlpe_ufar",12,4,NA
"208",409.089999971911,"<div class='displayed'><div style='width: 700px;'><div style='float: center;'><img src='stim-images/object11bluebig.jpg' width='186.245724673077' height='186.245724673077'></img></div></div></div><div id='rectangle'></div>",NA,"html-keyboard-response",101,86206,"0.0-6.0-0.18","74",11,"blicket","trial","small",1,"testing",186.245724673077,"arck_wlpe_ufar",12,2,6.01393518066669
"209",NA,"<div id='rectangle'></div>",NA,"html-keyboard-response",102,87212,"0.0-6.0-1.18","null",11,"blicket","feedback","small",0,"testing",186.245724673077,"arck_wlpe_ufar",12,2,NA
"210",568.940000026487,"<div class='displayed'><div style='width: 700px;'><div style='float: center;'><img src='stim-images/object11bluebig.jpg' width='135.24060416209002' height='135.24060416209002'></img></div></div></div><div id='rectangle'></div>",NA,"html-keyboard-response",103,87782,"0.0-6.0-0.19","74",11,"blicket","trial","small",1,"testing",135.24060416209,"arck_wlpe_ufar",12,0,6.34377498045818
"211",NA,"<div id='rectangle'></div>",NA,"html-keyboard-response",104,88785,"0.0-6.0-1.19","null",11,"blicket","feedback","small",0,"testing",135.24060416209,"arck_wlpe_ufar",13,0,NA
"212",1831.03000000119,"<b>Thank you for completing this experiment!</b><p></p><p class='block-text-debrief'>This experiment is a replication of previous work on category learning from direct experience showing that people categorize typical members of a category more quickly than atypical ones. In this case, we are looking to see if participants are faster to categorize alien fruits that are more typical of their categories (closer to the center of the size distribution of the category). That is, participants will categorize big sprocks and small blickets more quickly than small sprocks and big blickets.</p><p>Thank you for your participation!</p>",0,"html-button-response",105,90617,"0.0-7.0",NA,NA,NA,NA,NA,NA,NA,NA,"arck_wlpe_ufar",13,NA,7.51263392903029
"213",8901.96499999729,"<div id='consent'><img src='img/cmu_logo.png' alt='Carnegie Mellon University'><p id='logo-text'><u>Online Consent Form</u></p><small><p class='block-text-wide'>This game is part of a research study conducted by Daniel Yurovsky at Carnegie Mellon University. </p><p class='block-text-wide'><b>Summary</b>  In this game, you be presented a series of inoffensive stimuli designed to measure how people learn and communicate. You will be asked to make responses via mouse and keyboard. There are no foreseeable risks to you in this study, and participation will take no more than 10 minutes. Being in this study is voluntary - it is your choice.</p><p class='block-text-wide'><b>Purpose</b> In this study, we are investigating the development of language and communication.  Our research explores how infants and young children learn new words so quickly from the language spoken around them, as well as how adults learn language.  We are also interested in how adults foster this rapid vocabulary growth.</p><p class='block-text-wide'><b>Procedures</b> We will present you with a variety of stimuli, including natural and artificial language samples, pictures of known or unknown objects, and/or movies of people talking. Sometimes some of the speech you will hear will be from a foreign or made-up language. You will be asked to make judgments about these stimuli using the mouse and keyboard. We expect that this study will take around 5 minutes and can completed online in your browser.</p><p class='block-text-wide'><b>Participant Requirements</b> Participation in this study is limited to individuals age 18 and older who are fluent speakers of English.</p><p class='block-text-wide'><b>Risks</b> The risks and discomfort associated with participation in this study are no greater than those ordinarily encountered in daily life or during other online activities. You may become bored with the game.<p class='block-text-wide'><b>Benefits</b> There may be no personal benefit from your participation in the study but the knowledge received may be of value to humanity.<p class='block-text-wide'><b>Compensation & Costs</b> You will be compensated at the rate at least $6/hour for your participation in this research. This duration is determined by the maximum time allotted for this study, not the amount of time you take to complete it.<br>There will be no cost to you if you participate in this study.</p><p class='block-text-wide'><b>Future Use of Information and/or Bio-Specimens</b> In the future, once we have removed all identifiable information from your data, we may use the data for our future research studies, or we may distribute the data to other investigators for their research studies.  We would do this without getting additional informed consent from you (or your legally authorized representative).  Sharing of data with other researchers will only be done in such a manner that you will not be identified.<p class='block-text-wide'><b>Confidentiality</b> The data captured for the research does not include any personally identifiable information about you beyond your Amazon Mechanical Turk id and IP address.<p class='block-text-wide'><b>Right to Ask Questions & Contact Information</b> If you have any questions about this study, you should feel free to ask them by contacting the Principal Investigator now at: Daniel Yurovsky, Psychology Department, 5000 Forbes Ave, Pittsburgh, PA 15213. Phone: (412) 268-6266 Email: yurovsky@cmu.edu. If you have questions later, desire additional information, or wish to withdraw your participation please contact the Principal Investigator by mail, phone or e-mail in accordance with the contact information listed above.<br>If you have questions pertaining to your rights as a research participant; or to report concerns to this study, you should contact the Office of Research integrity and Compliance at Carnegie Mellon University. Email: irb-review@andrew.cmu.edu. Phone: 412-268-1901 or 412-268-5460. </p><p class='block-text-wide'><b>Voluntary Participation</b> Your participation in this research is voluntary. You may discontinue participation at any time during the research activity. You may print a copy of this consent form for your records.</p><p class='block-text-wide'>I am age 18 or older.<input type='radio' name='age' value='eighteen' onclick=enable('start')> Yes<input type='radio' name='age' value='not_eighteen' onclick=disable('start')> No</p><p class='block-text-wide'>I have read and understand the information above.<input type='radio' name='understand' value='understood' onclick=enable('start')> Yes<input type='radio' name='understand' value='not_understood' onclick=disable('start')> No</p><p class='block-text-wide'>I want to participate in this research and continue with the game.<input type='radio' name='give_consent' value='consent' onclick=enable('start')> Yes<input type='radio' name='give_consent' value='not_consent' onclick=disable('start')> No </p></small></div>",0,"html-button-response",0,9048,"0.0-0.0",NA,NA,NA,NA,NA,NA,NA,NA,"awix_ffgv_zuwr",0,NA,9.09402731786702
"214",1268.25500000268,"Press the keyboard key of the letter that comes after the letter d in the alphabet.",NA,"html-keyboard-response",1,10320,"0.0-1.0","69",NA,NA,NA,NA,NA,NA,NA,"awix_ffgv_zuwr",0,NA,7.14539721888151
"215",4354.68000000401,"img/speaker.png",0,"image-button-response",2,14678,"0.0-2.0",NA,NA,NA,NA,NA,NA,NA,NA,"awix_ffgv_zuwr",0,NA,8.37900640782778
"216",10101.2700000138,"<b>Instructions</b><p>You will see images of two categories of alien fruits, named blicket and koba .</p> <p>They will come out in random order, one at a time.</p><p>For one category, press the ""F"" key, and for the other category, press the ""J"" key. </p><p>You won't know which key corresponds to which fruit at first, but make your best guesses and over time, you will learn.</p><p>Remember, you will use the ""F"" and ""J"" keys to categorize the fruits.</p><p>Press the space bar to begin.</p>",NA,"html-keyboard-response",3,24782,"0.0-3.0","32",NA,NA,NA,NA,NA,NA,NA,"awix_ffgv_zuwr",0,NA,9.22041643750003
"217",2592.85000000091,"<audio src='stimsounds/koba.mp3', autoplay='true'></audio><div class='displayed'><div style='width: 700px;'><div style='float: center;'><div id='rectangle'></div><img src='stim-images/object4bluebig.jpg' width='201.33343872512035' height='201.33343872512035'></img></div></div></div>",NA,"html-keyboard-response",4,27394,"0.0-4.0-0.0","70",4,"koba","trial","small",0,"training",201.33343872512,"awix_ffgv_zuwr",0,2,7.8605129358133
"218",NA,"<audio src='stimsounds/buzzer.wav', autoplay='true'></audio><div id='rectangle'></div>",NA,"html-keyboard-response",5,28648,"0.0-4.0-1.0","null",4,"koba","feedback","small",0,"training",201.33343872512,"awix_ffgv_zuwr",0,2,NA
"219",1478.06499998842,"<audio src='stimsounds/blicket.mp3', autoplay='true'></audio><div class='displayed'><div style='width: 700px;'><div style='float: center;'><div id='rectangle'></div><img src='stim-images/object13bluebig.jpg' width='306.4945484554046' height='306.4945484554046'></img></div></div></div>",NA,"html-keyboard-response",6,30131,"0.0-4.0-0.1","70",13,"blicket","trial","big",1,"training",306.494548455405,"awix_ffgv_zuwr",0,5,7.29848907888241
"220",NA,"<audio src='stimsounds/empty.wav', autoplay='true'></audio><div id='rectangle'></div>",NA,"html-keyboard-response",7,31386,"0.0-4.0-1.1","null",13,"blicket","feedback","big",0,"training",306.494548455405,"awix_ffgv_zuwr",0,5,NA
"221",1507.44500001019,"<audio src='stimsounds/koba.mp3', autoplay='true'></audio><div class='displayed'><div style='width: 700px;'><div style='float: center;'><div id='rectangle'></div><img src='stim-images/object4bluebig.jpg' width='154.6524798482555' height='154.6524798482555'></img></div></div></div>",NA,"html-keyboard-response",8,32899,"0.0-4.0-0.2","74",4,"koba","trial","small",1,"training",154.652479848255,"awix_ffgv_zuwr",1,1,7.3181714436971
"222",NA,"<audio src='stimsounds/empty.wav', autoplay='true'></audio><div id='rectangle'></div>",NA,"html-keyboard-response",9,34157,"0.0-4.0-1.2","null",4,"koba","feedback","small",0,"training",154.652479848255,"awix_ffgv_zuwr",1,1,NA
"223",3092.01500000199,"<audio src='stimsounds/koba.mp3', autoplay='true'></audio><div class='displayed'><div style='width: 700px;'><div style='float: center;'><div id='rectangle'></div><img src='stim-images/object4bluebig.jpg' width='215.95873376892132' height='215.95873376892132'></img></div></div></div>",NA,"html-keyboard-response",10,37254,"0.0-4.0-0.3","74",4,"koba","trial","small",1,"training",215.958733768921,"awix_ffgv_zuwr",1,2,8.03657826092517
"224",NA,"<audio src='stimsounds/empty.wav', autoplay='true'></audio><div id='rectangle'></div>",NA,"html-keyboard-response",11,38512,"0.0-4.0-1.3","null",4,"koba","feedback","small",0,"training",215.958733768921,"awix_ffgv_zuwr",1,2,NA
"225",844.669999991311,"<audio src='stimsounds/blicket.mp3', autoplay='true'></audio><div class='displayed'><div style='width: 700px;'><div style='float: center;'><div id='rectangle'></div><img src='stim-images/object13bluebig.jpg' width='368.41250856211616' height='368.41250856211616'></img></div></div></div>",NA,"html-keyboard-response",12,39363,"0.0-4.0-0.4","70",13,"blicket","trial","big",1,"training",368.412508562116,"awix_ffgv_zuwr",1,6,6.73894601852481
"226",NA,"<audio src='stimsounds/empty.wav', autoplay='true'></audio><div id='rectangle'></div>",NA,"html-keyboard-response",13,40616,"0.0-4.0-1.4","null",13,"blicket","feedback","big",0,"training",368.412508562116,"awix_ffgv_zuwr",1,6,NA
"227",711.060000001453,"<audio src='stimsounds/blicket.mp3', autoplay='true'></audio><div class='displayed'><div style='width: 700px;'><div style='float: center;'><div id='rectangle'></div><img src='stim-images/object13bluebig.jpg' width='367.0744211238478' height='367.0744211238478'></img></div></div></div>",NA,"html-keyboard-response",14,41332,"0.0-4.0-0.5","70",13,"blicket","trial","big",1,"training",367.074421123848,"awix_ffgv_zuwr",1,6,6.56675681443046
"228",NA,"<audio src='stimsounds/empty.wav', autoplay='true'></audio><div id='rectangle'></div>",NA,"html-keyboard-response",15,42590,"0.0-4.0-1.5","null",13,"blicket","feedback","big",0,"training",367.074421123848,"awix_ffgv_zuwr",1,6,NA
"229",623.540000000503,"<audio src='stimsounds/koba.mp3', autoplay='true'></audio><div class='displayed'><div style='width: 700px;'><div style='float: center;'><div id='rectangle'></div><img src='stim-images/object4bluebig.jpg' width='203.48783690476017' height='203.48783690476017'></img></div></div></div>",NA,"html-keyboard-response",16,43219,"0.0-4.0-0.6","74",4,"koba","trial","small",1,"training",203.48783690476,"awix_ffgv_zuwr",2,2,6.43541291703265
"230",NA,"<audio src='stimsounds/empty.wav', autoplay='true'></audio><div id='rectangle'></div>",NA,"html-keyboard-response",17,44478,"0.0-4.0-1.6","null",4,"koba","feedback","small",0,"training",203.48783690476,"awix_ffgv_zuwr",2,2,NA
"231",584.449999994831,"<audio src='stimsounds/blicket.mp3', autoplay='true'></audio><div class='displayed'><div style='width: 700px;'><div style='float: center;'><div id='rectangle'></div><img src='stim-images/object13bluebig.jpg' width='336.34064166938003' height='336.34064166938003'></img></div></div></div>",NA,"html-keyboard-response",18,45067,"0.0-4.0-0.7","70",13,"blicket","trial","big",1,"training",336.34064166938,"awix_ffgv_zuwr",2,5,6.37067123404494
"232",NA,"<audio src='stimsounds/empty.wav', autoplay='true'></audio><div id='rectangle'></div>",NA,"html-keyboard-response",19,46324,"0.0-4.0-1.7","null",13,"blicket","feedback","big",0,"training",336.34064166938,"awix_ffgv_zuwr",2,5,NA
"233",529.96999998868,"<audio src='stimsounds/koba.mp3', autoplay='true'></audio><div class='displayed'><div style='width: 700px;'><div style='float: center;'><div id='rectangle'></div><img src='stim-images/object4bluebig.jpg' width='292.40477400354104' height='292.40477400354104'></img></div></div></div>",NA,"html-keyboard-response",20,46858,"0.0-4.0-0.8","74",4,"koba","trial","small",1,"training",292.404774003541,"awix_ffgv_zuwr",2,4,6.27282040114917
"234",NA,"<audio src='stimsounds/empty.wav', autoplay='true'></audio><div id='rectangle'></div>",NA,"html-keyboard-response",21,48112,"0.0-4.0-1.8","null",4,"koba","feedback","small",0,"training",292.404774003541,"awix_ffgv_zuwr",2,4,NA
"235",638.104999990901,"<audio src='stimsounds/koba.mp3', autoplay='true'></audio><div class='displayed'><div style='width: 700px;'><div style='float: center;'><div id='rectangle'></div><img src='stim-images/object4bluebig.jpg' width='216.0127624372424' height='216.0127624372424'></img></div></div></div>",NA,"html-keyboard-response",22,48755,"0.0-4.0-0.9","74",4,"koba","trial","small",1,"training",216.012762437242,"awix_ffgv_zuwr",2,2,6.45850284659176
"236",NA,"<audio src='stimsounds/empty.wav', autoplay='true'></audio><div id='rectangle'></div>",NA,"html-keyboard-response",23,50011,"0.0-4.0-1.9","null",4,"koba","feedback","small",0,"training",216.012762437242,"awix_ffgv_zuwr",2,2,NA
"237",500.094999995781,"<audio src='stimsounds/koba.mp3', autoplay='true'></audio><div class='displayed'><div style='width: 700px;'><div style='float: center;'><div id='rectangle'></div><img src='stim-images/object4bluebig.jpg' width='218.22078593705953' height='218.22078593705953'></img></div></div></div>",NA,"html-keyboard-response",24,50515,"0.0-4.0-0.10","74",4,"koba","trial","small",1,"training",218.22078593706,"awix_ffgv_zuwr",3,2,6.21479808036604
"238",NA,"<audio src='stimsounds/empty.wav', autoplay='true'></audio><div id='rectangle'></div>",NA,"html-keyboard-response",25,51769,"0.0-4.0-1.10","null",4,"koba","feedback","small",0,"training",218.22078593706,"awix_ffgv_zuwr",3,2,NA
"239",508.819999988191,"<audio src='stimsounds/koba.mp3', autoplay='true'></audio><div class='displayed'><div style='width: 700px;'><div style='float: center;'><div id='rectangle'></div><img src='stim-images/object4bluebig.jpg' width='235.14904332087798' height='235.14904332087798'></img></div></div></div>",NA,"html-keyboard-response",26,52282,"0.0-4.0-0.11","74",4,"koba","trial","small",1,"training",235.149043320878,"awix_ffgv_zuwr",3,3,6.23209431940626
"240",NA,"<audio src='stimsounds/empty.wav', autoplay='true'></audio><div id='rectangle'></div>",NA,"html-keyboard-response",27,53540,"0.0-4.0-1.11","null",4,"koba","feedback","small",0,"training",235.149043320878,"awix_ffgv_zuwr",3,3,NA
"241",522.080000009737,"<audio src='stimsounds/blicket.mp3', autoplay='true'></audio><div class='displayed'><div style='width: 700px;'><div style='float: center;'><div id='rectangle'></div><img src='stim-images/object13bluebig.jpg' width='354.5439626604101' height='354.5439626604101'></img></div></div></div>",NA,"html-keyboard-response",28,54067,"0.0-4.0-0.12","70",13,"blicket","trial","big",1,"training",354.54396266041,"awix_ffgv_zuwr",3,6,6.25782083286366
"242",NA,"<audio src='stimsounds/empty.wav', autoplay='true'></audio><div id='rectangle'></div>",NA,"html-keyboard-response",29,55321,"0.0-4.0-1.12","null",13,"blicket","feedback","big",0,"training",354.54396266041,"awix_ffgv_zuwr",3,6,NA
"243",429.040000002715,"<audio src='stimsounds/blicket.mp3', autoplay='true'></audio><div class='displayed'><div style='width: 700px;'><div style='float: center;'><div id='rectangle'></div><img src='stim-images/object13bluebig.jpg' width='346.55139979484983' height='346.55139979484983'></img></div></div></div>",NA,"html-keyboard-response",30,55755,"0.0-4.0-0.13","70",13,"blicket","trial","big",1,"training",346.55139979485,"awix_ffgv_zuwr",3,6,6.061550154681
"244",NA,"<audio src='stimsounds/empty.wav', autoplay='true'></audio><div id='rectangle'></div>",NA,"html-keyboard-response",31,57010,"0.0-4.0-1.13","null",13,"blicket","feedback","big",0,"training",346.55139979485,"awix_ffgv_zuwr",3,6,NA
"245",420.389999999315,"<audio src='stimsounds/blicket.mp3', autoplay='true'></audio><div class='displayed'><div style='width: 700px;'><div style='float: center;'><div id='rectangle'></div><img src='stim-images/object13bluebig.jpg' width='334.4216573284576' height='334.4216573284576'></img></div></div></div>",NA,"html-keyboard-response",32,57435,"0.0-4.0-0.14","70",13,"blicket","trial","big",1,"training",334.421657328458,"awix_ffgv_zuwr",4,5,6.04118285184861
"246",NA,"<audio src='stimsounds/empty.wav', autoplay='true'></audio><div id='rectangle'></div>",NA,"html-keyboard-response",33,58691,"0.0-4.0-1.14","null",13,"blicket","feedback","big",0,"training",334.421657328458,"awix_ffgv_zuwr",4,5,NA
"247",589.334999996936,"<audio src='stimsounds/koba.mp3', autoplay='true'></audio><div class='displayed'><div style='width: 700px;'><div style='float: center;'><div id='rectangle'></div><img src='stim-images/object4bluebig.jpg' width='283.92340006551194' height='283.92340006551194'></img></div></div></div>",NA,"html-keyboard-response",34,59284,"0.0-4.0-0.15","74",4,"koba","trial","small",1,"training",283.923400065512,"awix_ffgv_zuwr",4,4,6.37899478257458
"248",NA,"<audio src='stimsounds/empty.wav', autoplay='true'></audio><div id='rectangle'></div>",NA,"html-keyboard-response",35,60541,"0.0-4.0-1.15","null",4,"koba","feedback","small",0,"training",283.923400065512,"awix_ffgv_zuwr",4,4,NA
"249",610.860000000685,"<audio src='stimsounds/blicket.mp3', autoplay='true'></audio><div class='displayed'><div style='width: 700px;'><div style='float: center;'><div id='rectangle'></div><img src='stim-images/object13bluebig.jpg' width='362.67244412721936' height='362.67244412721936'></img></div></div></div>",NA,"html-keyboard-response",36,61155,"0.0-4.0-0.16","70",13,"blicket","trial","big",1,"training",362.672444127219,"awix_ffgv_zuwr",4,6,6.41486780034828
"250",NA,"<audio src='stimsounds/empty.wav', autoplay='true'></audio><div id='rectangle'></div>",NA,"html-keyboard-response",37,62414,"0.0-4.0-1.16","null",13,"blicket","feedback","big",0,"training",362.672444127219,"awix_ffgv_zuwr",4,6,NA
"251",415.670000002137,"<audio src='stimsounds/blicket.mp3', autoplay='true'></audio><div class='displayed'><div style='width: 700px;'><div style='float: center;'><div id='rectangle'></div><img src='stim-images/object13bluebig.jpg' width='348.50397865061973' height='348.50397865061973'></img></div></div></div>",NA,"html-keyboard-response",38,62834,"0.0-4.0-0.17","70",13,"blicket","trial","big",1,"training",348.50397865062,"awix_ffgv_zuwr",4,6,6.02989167623111
"252",NA,"<audio src='stimsounds/empty.wav', autoplay='true'></audio><div id='rectangle'></div>",NA,"html-keyboard-response",39,64089,"0.0-4.0-1.17","null",13,"blicket","feedback","big",0,"training",348.50397865062,"awix_ffgv_zuwr",4,6,NA
"253",500.755000000936,"<audio src='stimsounds/blicket.mp3', autoplay='true'></audio><div class='displayed'><div style='width: 700px;'><div style='float: center;'><div id='rectangle'></div><img src='stim-images/object13bluebig.jpg' width='369.258276164045' height='369.258276164045'></img></div></div></div>",NA,"html-keyboard-response",40,64596,"0.0-4.0-0.18","70",13,"blicket","trial","big",1,"training",369.258276164045,"awix_ffgv_zuwr",5,6,6.21611695952041
"254",NA,"<audio src='stimsounds/empty.wav', autoplay='true'></audio><div id='rectangle'></div>",NA,"html-keyboard-response",41,65852,"0.0-4.0-1.18","null",13,"blicket","feedback","big",0,"training",369.258276164045,"awix_ffgv_zuwr",5,6,NA
"255",379.11000000895,"<audio src='stimsounds/blicket.mp3', autoplay='true'></audio><div class='displayed'><div style='width: 700px;'><div style='float: center;'><div id='rectangle'></div><img src='stim-images/object13bluebig.jpg' width='396.1040834159271' height='396.1040834159271'></img></div></div></div>",NA,"html-keyboard-response",42,66236,"0.0-4.0-0.19","70",13,"blicket","trial","big",1,"training",396.104083415927,"awix_ffgv_zuwr",5,7,5.93782640046231
"256",NA,"<audio src='stimsounds/empty.wav', autoplay='true'></audio><div id='rectangle'></div>",NA,"html-keyboard-response",43,67495,"0.0-4.0-1.19","null",13,"blicket","feedback","big",0,"training",396.104083415927,"awix_ffgv_zuwr",5,7,NA
